Time_s,Temperature_C,Humidity_%,Pressure_hPa,Lat,Lng,Alt_m,Fix,Sats,AccelX_g,AccelY_g,AccelZ_g,GyroX_deg_s,GyroY_deg_s,GyroZ_deg_s,TotalAccel
3.591,28.77,41.36,999.98,0.000000,0.000000,0.00,0,0,0.9795,-0.1628,-0.2981,2.5725,2.4962,3.0382,1.037
3.613,28.77,41.36,999.98,0.000000,0.000000,0.00,0,0,0.9495,-0.1965,-0.2383,3.3282,0.9847,0.7786,0.998
3.724,28.77,41.36,999.98,0.000000,0.000000,0.00,0,0,1.0190,-0.1301,-0.3132,-0.6336,0.7099,-1.0305,1.074
3.874,28.76,41.36,999.94,0.000000,0.000000,0.00,0,0,0.9929,-0.1387,-0.3052,1.9313,2.2977,1.6107,1.048
3.895,28.76,41.36,999.94,0.000000,0.000000,0.00,0,0,0.9998,-0.1440,-0.3025,1.8855,2.5420,1.0076,1.054
3.932,28.77,41.37,999.96,0.000000,0.000000,0.00,0,0,1.0005,-0.1338,-0.3037,1.1756,2.4656,0.4809,1.054
4.030,28.77,41.35,999.96,0.000000,0.000000,0.00,0,0,0.9973,-0.1353,-0.2891,1.6260,1.4046,0.5573,1.047
4.067,28.77,41.35,999.96,0.000000,0.000000,0.00,0,0,0.9949,-0.1409,-0.2935,1.5420,0.9924,0.4809,1.047
4.182,28.77,41.35,999.93,0.000000,0.000000,0.00,0,0,0.9941,-0.1440,-0.2959,1.3511,1.8855,0.1374,1.047
4.236,28.77,41.35,999.96,0.000000,0.000000,0.00,0,0,0.9971,-0.1409,-0.2905,2.1221,1.8015,0.3130,1.048
4.380,28.77,41.34,999.97,0.000000,0.000000,0.00,0,0,0.9961,-0.1411,-0.2969,1.2061,0.6489,-0.1298,1.049
4.454,28.77,41.34,1000.00,0.000000,0.000000,0.00,0,0,0.9973,-0.1404,-0.3022,1.4351,1.6947,0.8702,1.052
4.495,28.77,41.34,1000.00,0.000000,0.000000,0.00,0,0,0.9973,-0.1389,-0.2886,1.7863,1.4580,0.6336,1.047
4.568,28.78,41.34,999.99,0.000000,0.000000,0.00,0,0,0.9949,-0.1423,-0.2922,1.0076,1.7634,-0.0916,1.047
4.678,28.77,41.33,999.98,0.000000,0.000000,0.00,0,0,0.9905,-0.1360,-0.3235,2.4580,1.5191,-0.1450,1.051
4.753,28.78,41.35,999.98,0.000000,0.000000,0.00,0,0,0.9980,-0.1157,-0.3108,2.1679,2.1298,1.2366,1.052
4.759,28.78,41.35,999.98,0.000000,0.000000,0.00,0,0,1.0291,-0.1643,-0.2739,0.6565,1.9008,0.3588,1.077
4.765,-140.91,41.35,999.98,0.000000,0.000000,0.00,0,0,1.0095,-0.1038,-0.3647,0.6107,1.9618,-1.6947,1.078
4.772,28.78,41.35,999.98,0.000000,0.000000,0.00,0,0,0.9614,-0.1279,-0.2754,3.3893,0.9542,1.4504,1.008
4.778,28.78,41.35,999.98,0.000000,0.000000,0.00,0,0,1.0120,-0.1541,-0.2361,1.5878,2.0992,1.5878,1.050
4.891,28.78,41.33,999.98,0.000000,0.000000,0.00,0,0,0.9297,-0.2861,-0.3091,1.7252,4.8931,-2.9160,1.021
4.897,28.78,41.34,999.98,0.000000,0.000000,0.00,0,0,0.9695,-0.1826,-0.4602,0.8855,7.1450,-3.9237,1.089
4.903,28.78,41.34,999.98,0.000000,0.000000,0.00,0,0,0.9670,-0.1628,-0.1763,-1.7939,5.2672,-2.7099,0.996
4.909,28.78,41.34,999.98,0.000000,0.000000,0.00,0,0,0.9609,-0.1848,-0.2070,-5.6107,6.7176,-4.2672,1.000
4.915,28.78,41.34,999.98,0.000000,0.000000,0.00,0,0,0.9316,-0.1187,-0.1885,-4.0000,3.7252,-6.4275,0.958
4.921,28.78,41.34,999.98,0.000000,0.000000,0.00,0,0,0.9521,-0.0712,-0.2549,-0.7786,5.3893,-2.7786,0.988
4.927,28.78,41.34,999.98,0.000000,0.000000,0.00,0,0,1.1924,0.0100,-0.0151,-20.6183,11.3282,4.3893,1.193
4.933,28.78,41.34,999.98,0.000000,0.000000,0.00,0,0,0.6851,-0.3623,0.1074,-34.3435,1.7328,-7.6565,0.782
4.939,28.78,41.34,999.98,0.000000,0.000000,0.00,0,0,0.8416,-0.4336,-0.1160,-34.0458,1.5954,-15.2443,0.954
4.945,28.78,41.34,999.98,0.000000,0.000000,0.00,0,0,0.9839,-0.0766,-0.4382,-30.0305,3.6107,-9.1756,1.080
5.062,28.75,41.34,999.93,0.000000,0.000000,0.00,0,0,0.9717,-0.2036,-0.2832,-1.9695,3.1603,-0.3206,1.032
5.068,28.75,41.34,999.93,0.000000,0.000000,0.00,0,0,0.9822,-0.1836,-0.2952,0.6718,2.1145,-0.3893,1.042
5.074,28.75,41.34,999.93,0.000000,0.000000,0.00,0,0,0.9880,-0.1394,-0.3484,4.5878,2.2366,0.2443,1.057
5.080,28.75,41.34,999.93,0.000000,0.000000,0.00,0,0,0.9888,-0.1252,-0.3027,6.3359,2.0534,1.0382,1.042
5.086,28.75,41.34,999.93,0.000000,0.000000,0.00,0,0,1.0029,-0.1111,-0.3027,7.1221,2.4198,1.4046,1.053
5.092,28.79,41.33,999.98,0.000000,0.000000,0.00,0,0,0.9927,-0.1409,-0.2810,5.6489,1.0687,2.4046,1.041
5.167,28.79,41.33,999.98,0.000000,0.000000,0.00,0,0,0.9956,-0.1536,-0.2776,4.8931,1.0840,2.1145,1.045
5.173,28.79,41.33,999.98,0.000000,0.000000,0.00,0,0,0.9907,-0.1438,-0.2761,3.7939,0.8321,1.7023,1.038
5.179,28.79,41.33,999.98,0.000000,0.000000,0.00,0,0,0.9819,-0.1570,-0.2754,2.2748,1.0000,1.4809,1.032
5.185,28.79,41.33,999.98,0.000000,0.000000,0.00,0,0,0.9854,-0.1624,-0.2656,0.1527,1.2214,0.4809,1.033
5.272,28.78,41.31,999.98,0.000000,0.000000,0.00,0,0,0.9893,-0.1465,-0.2976,-3.0305,-1.4275,1.1679,1.043
5.278,28.78,41.31,999.98,0.000000,0.000000,0.00,0,0,0.9880,-0.1465,-0.3040,-3.1527,-1.2214,0.9160,1.044
5.284,28.78,41.28,999.95,0.000000,0.000000,0.00,0,0,0.9868,-0.1472,-0.3108,-2.8931,-1.1527,0.9237,1.045
5.290,28.78,41.28,999.95,0.000000,0.000000,0.00,0,0,1.0454,-0.1072,-0.2908,-3.6947,-3.8550,3.5649,1.090
5.365,28.78,41.28,999.95,0.000000,0.000000,0.00,0,0,1.0361,-0.0908,-0.2908,-4.8626,-3.8168,4.2824,1.080
5.371,28.78,41.28,999.95,0.000000,0.000000,0.00,0,0,1.0371,-0.0798,-0.3079,-5.9695,-3.8626,4.9847,1.085
5.377,28.78,41.28,999.95,0.000000,0.000000,0.00,0,0,1.0393,-0.0854,-0.3416,-7.0916,-3.8168,5.9542,1.097
5.383,28.78,41.30,999.97,0.000000,0.000000,0.00,0,0,1.0588,-0.0793,-0.3472,-7.6183,-3.5267,6.5344,1.117
5.389,28.78,41.30,999.97,0.000000,0.000000,0.00,0,0,1.0083,-0.2412,-0.4001,3.7786,8.9542,8.8550,1.111
5.463,28.78,41.30,999.97,0.000000,0.000000,0.00,0,0,0.9927,-0.2522,-0.4131,4.8855,9.3664,8.9847,1.104
5.517,28.78,41.33,999.96,0.000000,0.000000,0.00,0,0,0.9434,-0.2476,-0.3076,10.0382,9.0534,-0.7481,1.023
5.523,28.78,41.33,999.96,0.000000,0.000000,0.00,0,0,0.9685,-0.2629,-0.3508,10.8855,9.4275,-1.3435,1.063
5.529,28.78,41.33,999.96,0.000000,0.000000,0.00,0,0,0.9739,-0.2295,-0.3247,10.2061,9.3588,-1.8397,1.052
5.535,28.78,41.33,999.96,0.000000,0.000000,0.00,0,0,0.9800,-0.2219,-0.3281,9.1527,9.6107,-2.8626,1.057
5.541,28.79,41.31,999.99,0.000000,0.000000,0.00,0,0,1.0039,-0.1438,-0.3582,-0.2290,17.7405,-6.3893,1.076
5.616,28.79,41.31,999.99,0.000000,0.000000,0.00,0,0,1.0134,-0.1409,-0.3828,1.5267,18.2977,-5.5420,1.092
5.621,28.79,41.31,999.99,0.000000,0.000000,0.00,0,0,1.0090,-0.1123,-0.3674,3.5496,19.0076,-5.1450,1.080
5.627,28.79,41.31,999.99,0.000000,0.000000,0.00,0,0,0.6694,-0.3613,-0.4978,52.3130,2.6412,50.0534,0.909
5.703,28.79,41.30,999.99,0.000000,0.000000,0.00,0,0,0.8467,-0.2207,-0.2405,56.3511,3.8473,45.3435,0.907
5.708,28.79,41.30,999.99,0.000000,0.000000,0.00,0,0,0.9492,-0.1848,-0.2654,56.2366,-3.0000,51.3435,1.003
5.799,28.78,41.30,999.97,0.000000,0.000000,0.00,0,0,1.0759,-0.3169,-0.2100,56.0076,-0.0076,43.1985,1.141
5.805,28.78,41.30,999.97,0.000000,0.000000,0.00,0,0,1.0720,-0.3071,-0.1636,52.0229,0.8550,41.3588,1.127
5.811,28.78,41.30,999.97,0.000000,0.000000,0.00,0,0,1.0513,-0.3225,-0.1458,48.7328,1.4351,38.6489,1.109
5.818,28.78,41.30,999.97,0.000000,0.000000,0.00,0,0,1.0232,-0.3350,-0.1401,45.2748,1.8473,36.3282,1.086
5.823,28.78,41.30,999.97,0.000000,0.000000,0.00,0,0,0.9949,-0.3225,-0.1521,43.0000,2.2290,34.0687,1.057
5.829,28.78,41.30,999.97,0.000000,0.000000,0.00,0,0,0.9722,-0.3218,-0.1582,40.6183,2.7252,31.9084,1.036
5.835,28.78,41.30,999.97,0.000000,0.000000,0.00,0,0,0.9458,-0.3008,-0.1641,38.9924,3.3969,29.7176,1.006
5.841,28.78,41.30,999.97,0.000000,0.000000,0.00,0,0,0.9390,-0.2246,-0.1223,35.2901,3.5573,27.2519,0.973
5.847,28.78,41.30,999.97,0.000000,0.000000,0.00,0,0,1.0181,-0.3872,-0.2493,33.6412,5.2519,28.8550,1.117
5.853,28.78,41.30,999.97,0.000000,0.000000,0.00,0,0,0.9111,-0.3015,-0.1958,32.6641,6.3893,26.2137,0.979
5.989,28.79,41.29,1000.00,0.000000,0.000000,0.00,0,0,0.9016,-0.3953,-0.1541,33.8702,-2.2061,-3.1908,0.996
5.995,28.79,41.29,1000.00,0.000000,0.000000,0.00,0,0,0.9021,-0.3799,-0.1362,33.6336,-2.0992,-4.2595,0.988
6.001,28.79,41.29,1000.00,0.000000,0.000000,0.00,0,0,0.8960,-0.3701,-0.1348,33.3511,-2.1756,-5.2595,0.979
6.007,28.79,41.29,1000.00,0.000000,0.000000,0.00,0,0,0.9023,-0.3423,-0.1067,33.0076,-2.0916,-6.3893,0.971
6.013,28.79,41.29,1000.00,0.000000,0.000000,0.00,0,0,0.8987,-0.3271,-0.0900,32.5649,-1.7786,-7.7634,0.961
6.019,28.79,41.29,1000.00,0.000000,0.000000,0.00,0,0,0.9043,-0.3079,-0.0883,31.2366,-1.6947,-8.8931,0.959
6.025,28.79,41.29,1000.00,0.000000,0.000000,0.00,0,0,0.9050,-0.3149,-0.0854,29.6565,-1.2137,-10.0458,0.962
6.031,28.79,41.29,1000.00,0.000000,0.000000,0.00,0,0,0.9060,-0.3186,-0.0764,27.6260,-0.8473,-11.5802,0.963
6.037,28.79,41.29,1000.00,0.000000,0.000000,0.00,0,0,0.9116,-0.3108,-0.0817,25.3969,-0.3511,-12.7176,0.967
6.043,28.79,41.29,1000.00,0.000000,0.000000,0.00,0,0,0.9287,-0.3257,-0.0795,22.1221,0.1221,-13.6031,0.987
6.174,28.79,41.29,999.99,0.000000,0.000000,0.00,0,0,0.9099,-0.3059,-0.1719,3.4504,-2.5725,-12.7557,0.975
6.179,28.79,41.29,999.99,0.000000,0.000000,0.00,0,0,0.9155,-0.3030,-0.1775,4.0840,-3.0305,-11.9237,0.981
6.185,28.79,41.29,999.99,0.000000,0.000000,0.00,0,0,0.9231,-0.3015,-0.1794,5.0458,-2.9847,-10.7099,0.988
6.191,28.79,41.29,999.99,0.000000,0.000000,0.00,0,0,0.9214,-0.3042,-0.1848,6.2595,-3.3206,-9.7252,0.988
6.197,28.79,41.29,999.99,0.000000,0.000000,0.00,0,0,0.9238,-0.3054,-0.1821,7.1450,-3.5802,-8.7863,0.990
6.203,28.79,41.29,999.99,0.000000,0.000000,0.00,0,0,0.9358,-0.3003,-0.1868,7.9847,-4.1374,-7.8397,1.000
6.209,28.79,41.29,999.99,0.000000,0.000000,0.00,0,0,0.9360,-0.2900,-0.1948,8.5496,-4.4198,-6.7405,0.999
6.215,28.79,41.29,999.99,0.000000,0.000000,0.00,0,0,0.9426,-0.2705,-0.1914,8.7939,-4.6031,-5.7328,0.999
6.221,28.79,41.29,999.99,0.000000,0.000000,0.00,0,0,0.9480,-0.2637,-0.1941,9.5802,-5.2595,-4.6794,1.003
6.227,28.79,41.29,999.99,0.000000,0.000000,0.00,0,0,0.9575,-0.2532,-0.1958,9.8092,-5.4656,-3.5649,1.010
6.328,28.76,41.28,999.91,0.000000,0.000000,0.00,0,0,0.9651,-0.2727,-0.2317,-4.7252,-3.1298,4.5344,1.029
6.334,28.76,41.28,999.91,0.000000,0.000000,0.00,0,0,0.9648,-0.2695,-0.2327,-5.7176,-2.4885,4.7176,1.028
6.341,28.79,41.32,999.96,0.000000,0.000000,0.00,0,0,1.0313,-0.3018,-0.2488,2.4122,2.9771,6.7176,1.103
6.415,28.79,41.32,999.96,0.000000,0.000000,0.00,0,0,1.0227,-0.3164,-0.2554,2.2290,3.7863,6.8702,1.101
6.421,28.79,41.32,999.96,0.000000,0.000000,0.00,0,0,1.0198,-0.3093,-0.2473,1.7557,4.5954,6.8550,1.094
6.427,28.79,41.32,999.96,0.000000,0.000000,0.00,0,0,1.0154,-0.3096,-0.2505,1.2519,5.7634,7.3206,1.091
6.433,28.79,41.32,999.96,0.000000,0.000000,0.00,0,0,1.0107,-0.3069,-0.2588,1.1985,6.7328,7.3817,1.088
6.439,28.79,41.32,999.96,0.000000,0.000000,0.00,0,0,1.0161,-0.3081,-0.2502,2.0458,7.7252,7.8168,1.091
6.445,28.79,41.32,999.96,0.000000,0.000000,0.00,0,0,1.0210,-0.2893,-0.2368,2.9313,8.6412,7.8015,1.087
6.451,28.79,41.32,999.95,0.000000,0.000000,0.00,0,0,1.0339,-0.2791,-0.1968,9.1374,21.0916,3.6794,1.089
6.578,28.79,41.29,999.96,0.000000,0.000000,0.00,0,0,0.9653,-0.2917,-0.1824,5.8779,26.7786,4.7557,1.025
6.584,28.79,41.29,999.96,0.000000,0.000000,0.00,0,0,0.9661,-0.2988,-0.1816,7.1374,26.7863,5.5115,1.027
6.589,28.79,41.29,999.96,0.000000,0.000000,0.00,0,0,0.9739,-0.3025,-0.1707,8.1298,26.7481,5.7786,1.034
6.595,28.79,41.29,999.96,0.000000,0.000000,0.00,0,0,0.9734,-0.3003,-0.1687,8.9924,26.6947,6.2595,1.033
6.601,28.79,41.29,999.96,0.000000,0.000000,0.00,0,0,0.9836,-0.3052,-0.1724,9.6260,26.7023,6.2443,1.044
6.607,28.79,41.29,999.96,0.000000,0.000000,0.00,0,0,0.9890,-0.3040,-0.1641,9.8168,26.1832,6.5878,1.048
6.613,28.79,41.29,999.96,0.000000,0.000000,0.00,0,0,0.9849,-0.3022,-0.1584,9.5267,26.2443,6.8015,1.042
6.619,28.79,41.29,999.96,0.000000,0.000000,0.00,0,0,0.9875,-0.3015,-0.1521,8.9771,25.8931,7.3817,1.044
6.625,28.79,41.29,999.96,0.000000,0.000000,0.00,0,0,0.9873,-0.3013,-0.1426,8.5420,25.3740,7.7481,1.042
6.631,28.79,41.29,999.96,0.000000,0.000000,0.00,0,0,0.9795,-0.3042,-0.1492,7.5573,25.3359,8.0687,1.036
6.874,28.79,41.29,999.94,0.000000,0.000000,0.00,0,0,0.9568,-0.3306,-0.0429,7.7710,-4.5038,-5.5496,1.013
6.880,28.79,41.29,999.94,0.000000,0.000000,0.00,0,0,0.9709,-0.3293,-0.0393,6.3893,-4.5649,-6.3664,1.026
6.885,28.79,41.29,999.94,0.000000,0.000000,0.00,0,0,0.9968,-0.3201,-0.0432,5.5420,-4.2214,-6.7328,1.048
6.892,28.78,41.29,999.92,0.000000,0.000000,0.00,0,0,0.8030,-0.5928,-0.1577,16.8397,13.3817,16.1298,1.010
7.035,28.78,41.29,999.92,0.000000,0.000000,0.00,0,0,0.8479,-0.4348,-0.0319,17.9771,13.7557,14.4122,0.953
7.041,28.78,41.29,999.92,0.000000,0.000000,0.00,0,0,0.8306,-0.5447,-0.1575,16.9618,14.6489,12.8321,1.006
7.047,28.79,41.26,999.96,0.000000,0.000000,0.00,0,0,0.8535,-0.4216,-0.0114,15.4809,14.9618,12.8473,0.952
7.053,28.79,41.26,999.96,0.000000,0.000000,0.00,0,0,0.8491,-0.4570,-0.1025,13.5344,15.9084,10.5267,0.970
7.059,28.79,41.26,999.96,0.000000,0.000000,0.00,0,0,0.8823,-0.3770,-0.0283,12.1679,16.0458,11.2748,0.960
7.065,28.79,41.26,999.96,0.000000,0.000000,0.00,0,0,0.8801,-0.3955,-0.0830,10.9313,17.4580,9.1221,0.968
7.140,28.79,41.26,999.96,0.000000,0.000000,0.00,0,0,0.8254,-0.3535,0.0300,-8.5725,24.7710,0.7023,0.898
7.146,28.77,41.27,999.92,0.000000,0.000000,0.00,0,0,0.8320,-0.3608,0.0361,-11.2443,25.1603,0.3282,0.908
7.152,28.77,41.27,999.92,0.000000,0.000000,0.00,0,0,0.8413,-0.3540,0.0610,-13.6870,25.7557,-0.1603,0.915
7.158,28.77,41.27,999.92,0.000000,0.000000,0.00,0,0,0.8518,-0.3645,0.0397,-16.6489,26.4504,-1.0840,0.927
7.164,28.77,41.27,999.92,0.000000,0.000000,0.00,0,0,0.8777,-0.3462,0.0534,-19.6947,27.0840,-1.2214,0.945
7.170,28.77,41.27,999.92,0.000000,0.000000,0.00,0,0,0.8848,-0.3608,0.0354,-22.2672,27.7176,-2.8168,0.956
7.176,28.77,41.27,999.92,0.000000,0.000000,0.00,0,0,0.9106,-0.3284,0.0683,-24.7786,26.4046,-3.7557,0.970
7.182,28.77,41.27,999.92,0.000000,0.000000,0.00,0,0,1.0828,-0.5493,-0.1909,-27.3740,24.8702,-4.9924,1.229
7.188,28.77,41.27,999.90,0.000000,0.000000,0.00,0,0,0.8525,-0.3828,-0.0485,-7.9160,9.6718,-9.5115,0.936
7.263,28.76,41.29,999.89,0.000000,0.000000,0.00,0,0,0.8564,-0.3909,-0.0644,-5.2901,8.0229,-9.3969,0.944
7.502,28.79,41.29,999.94,0.000000,0.000000,0.00,0,0,0.9634,-0.2847,-0.1304,-20.3130,-8.2519,-19.9771,1.013
7.508,28.79,41.29,999.94,0.000000,0.000000,0.00,0,0,0.9553,-0.2886,-0.1262,-18.7634,-9.0153,-19.2443,1.006
7.514,28.79,41.29,999.94,0.000000,0.000000,0.00,0,0,0.9526,-0.2695,-0.1282,-16.3664,-10.1450,-18.4122,0.998
7.520,28.79,41.29,999.94,0.000000,0.000000,0.00,0,0,0.9436,-0.2603,-0.1411,-14.0229,-11.2595,-17.5267,0.989
7.526,28.79,41.29,999.94,0.000000,0.000000,0.00,0,0,0.9397,-0.2578,-0.1250,-11.5878,-11.8855,-16.2748,0.982
7.532,28.79,41.29,999.94,0.000000,0.000000,0.00,0,0,0.9456,-0.2566,-0.1299,-9.2672,-12.9160,-15.3588,0.988
7.538,28.79,41.22,999.94,0.000000,0.000000,0.00,0,0,0.9412,-0.2495,-0.1355,-7.0763,-13.4046,-14.0840,0.983
7.544,28.79,41.22,999.94,0.000000,0.000000,0.00,0,0,0.9382,-0.2480,-0.1340,-5.1985,-14.0305,-13.6489,0.980
7.550,28.79,41.22,999.94,0.000000,0.000000,0.00,0,0,0.9465,-0.2493,-0.1228,-3.4656,-14.6489,-12.5725,0.986
7.556,28.79,41.22,999.94,0.000000,0.000000,0.00,0,0,0.9536,-0.2522,-0.1187,-2.9160,-14.7710,-11.8779,0.994
7.704,28.77,41.30,999.90,0.000000,0.000000,0.00,0,0,1.0251,-0.2620,-0.1211,-12.3282,-3.1832,-7.2824,1.065
7.710,28.77,41.30,999.90,0.000000,0.000000,0.00,0,0,1.0222,-0.2593,-0.1216,-14.7023,-2.3817,-7.2901,1.062
7.715,28.77,41.30,999.90,0.000000,0.000000,0.00,0,0,1.0112,-0.2649,-0.1353,-16.4046,-1.2977,-7.3664,1.054
7.722,28.77,41.30,999.90,0.000000,0.000000,0.00,0,0,0.9990,-0.2769,-0.1282,-17.4046,-0.7099,-7.0840,1.045
7.728,28.77,41.30,999.90,0.000000,0.000000,0.00,0,0,0.9912,-0.2764,-0.1394,-17.5420,-0.1069,-7.1908,1.038
7.733,28.80,41.29,999.94,0.000000,0.000000,0.00,0,0,0.9773,-0.2852,-0.1465,-17.4198,0.7710,-7.0229,1.029
7.739,28.80,41.29,999.94,0.000000,0.000000,0.00,0,0,0.9771,-0.2896,-0.1379,-17.1145,1.2595,-6.7557,1.028
7.745,28.80,41.29,999.94,0.000000,0.000000,0.00,0,0,0.9719,-0.2942,-0.1316,-16.3435,1.9237,-6.0763,1.024
7.751,28.80,41.29,999.94,0.000000,0.000000,0.00,0,0,0.9734,-0.2893,-0.1411,-15.3206,2.5115,-5.8015,1.025
7.757,28.80,41.29,999.94,0.000000,0.000000,0.00,0,0,0.9758,-0.2856,-0.1445,-14.0611,2.7328,-5.2824,1.027
7.904,28.76,41.30,999.88,0.000000,0.000000,0.00,0,0,0.9988,-0.2661,-0.1274,4.0000,0.3893,-1.0229,1.041
7.910,28.76,41.30,999.88,0.000000,0.000000,0.00,0,0,1.0024,-0.2739,-0.1318,3.3817,1.1221,-0.5649,1.048
7.916,28.76,41.30,999.88,0.000000,0.000000,0.00,0,0,1.0178,-0.2803,-0.1230,3.5496,1.4656,-0.0305,1.063
7.922,28.76,41.30,999.88,0.000000,0.000000,0.00,0,0,1.0159,-0.2834,-0.1235,4.0000,2.2061,0.6336,1.062
7.927,28.80,41.32,999.91,0.000000,0.000000,0.00,0,0,1.0264,-0.2769,-0.1240,4.6031,2.9618,1.4504,1.070
7.933,28.80,41.32,999.91,0.000000,0.000000,0.00,0,0,1.0178,-0.2842,-0.1255,4.9466,3.6260,2.1985,1.064
7.939,28.80,41.32,999.91,0.000000,0.000000,0.00,0,0,1.0190,-0.2703,-0.1377,5.2137,4.8855,3.0916,1.063
7.945,28.80,41.32,999.91,0.000000,0.000000,0.00,0,0,1.0063,-0.2747,-0.1331,5.4580,5.9695,3.8092,1.052
7.951,28.80,41.32,999.91,0.000000,0.000000,0.00,0,0,0.9902,-0.2739,-0.0725,7.1832,9.7557,6.2214,1.030
8.026,28.77,41.30,999.90,0.000000,0.000000,0.00,0,0,0.9841,-0.2805,-0.0703,6.4962,9.2595,5.6718,1.026
8.067,28.77,41.30,999.90,0.000000,0.000000,0.00,0,0,1.0164,-0.2710,-0.0483,3.4046,3.1679,-2.1450,1.053
8.141,28.79,41.31,999.92,0.000000,0.000000,0.00,0,0,1.0264,-0.2603,-0.0366,1.4351,2.9008,-2.4504,1.059
8.147,28.79,41.31,999.92,0.000000,0.000000,0.00,0,0,1.0208,-0.2505,-0.0354,-0.3053,3.1145,-2.8626,1.052
8.153,28.79,41.31,999.92,0.000000,0.000000,0.00,0,0,1.0247,-0.2473,-0.0400,-2.5038,2.6794,-3.1985,1.055
8.159,28.79,41.31,999.92,0.000000,0.000000,0.00,0,0,1.0234,-0.2456,-0.0332,-4.6183,2.9466,-2.5878,1.053
8.165,28.79,41.31,999.92,0.000000,0.000000,0.00,0,0,1.0168,-0.2336,-0.0512,-5.4809,3.1603,-2.2061,1.045
8.171,28.79,41.31,999.92,0.000000,0.000000,0.00,0,0,1.0022,-0.2251,-0.0522,-6.7939,3.3817,-1.5954,1.028
8.177,28.79,41.31,999.92,0.000000,0.000000,0.00,0,0,1.0044,-0.2334,-0.0629,-8.2595,3.4962,-0.9008,1.033
8.183,28.79,41.31,999.92,0.000000,0.000000,0.00,0,0,1.0095,-0.2344,-0.0666,-8.9618,4.9008,0.9771,1.039
8.189,28.79,41.31,999.92,0.000000,0.000000,0.00,0,0,1.0125,-0.2227,-0.0659,-9.5191,5.8626,2.3435,1.039
8.311,28.78,41.31,999.92,0.000000,0.000000,0.00,0,0,0.9414,-0.2861,-0.1277,-10.7405,3.6260,4.1374,0.992
8.316,28.78,41.31,999.91,0.000000,0.000000,0.00,0,0,0.9534,-0.2932,-0.1257,-10.5649,3.7099,3.7939,1.005
8.322,28.79,41.32,999.93,0.000000,0.000000,0.00,0,0,0.9553,-0.2981,-0.1311,-10.0840,3.6412,3.3969,1.009
8.328,28.79,41.32,999.93,0.000000,0.000000,0.00,0,0,0.9580,-0.2939,-0.1287,-9.3893,3.6489,2.7557,1.010
8.334,28.79,41.32,999.93,0.000000,0.000000,0.00,0,0,0.9617,-0.3044,-0.1453,-9.3359,3.9160,2.7328,1.019
8.340,28.79,41.32,999.93,0.000000,0.000000,0.00,0,0,0.9709,-0.2974,-0.1299,-8.3282,3.3817,3.0229,1.024
8.346,28.79,41.32,999.93,0.000000,0.000000,0.00,0,0,0.9790,-0.2817,-0.1255,-6.8321,3.8168,2.7939,1.026
8.352,28.79,41.32,999.93,0.000000,0.000000,0.00,0,0,0.9773,-0.2922,-0.1313,-5.0840,3.7710,2.7328,1.028
8.358,28.79,41.32,999.93,0.000000,0.000000,0.00,0,0,0.9846,-0.2822,-0.1218,-3.9695,4.2519,2.5496,1.031
8.364,28.79,41.32,999.93,0.000000,0.000000,0.00,0,0,0.9771,-0.2942,-0.1270,-4.9771,4.7099,2.2366,1.028
8.507,28.76,41.32,999.88,0.000000,0.000000,0.00,0,0,0.9563,-0.3484,-0.1265,1.0382,-2.1832,-2.1603,1.026
8.582,28.80,41.32,999.94,0.000000,0.000000,0.00,0,0,0.9622,-0.3438,-0.1230,1.8855,-2.4046,-2.4504,1.029
8.588,28.80,41.32,999.94,0.000000,0.000000,0.00,0,0,0.9666,-0.3401,-0.1338,2.8397,-2.6336,-2.3740,1.033
8.594,28.80,41.32,999.94,0.000000,0.000000,0.00,0,0,0.9785,-0.3381,-0.1382,3.6718,-2.5267,-2.4275,1.044
8.600,28.80,41.32,999.94,0.000000,0.000000,0.00,0,0,0.9746,-0.3330,-0.1311,4.7786,-2.5954,-2.6947,1.038
8.606,28.80,41.32,999.94,0.000000,0.000000,0.00,0,0,0.9858,-0.3337,-0.1333,5.5649,-2.5878,-2.7405,1.049
8.612,28.80,41.36,999.97,0.000000,0.000000,0.00,0,0,0.9890,-0.3203,-0.1328,5.9695,-2.4046,-2.6870,1.048
8.618,28.80,41.36,999.97,0.000000,0.000000,0.00,0,0,0.9893,-0.3162,-0.1287,5.8473,-2.1756,-2.8397,1.046
8.624,28.80,41.36,999.97,0.000000,0.000000,0.00,0,0,0.9846,-0.3098,-0.1199,5.6947,-2.0076,-2.6794,1.039
8.630,28.80,41.36,999.97,0.000000,0.000000,0.00,0,0,0.9832,-0.3030,-0.1177,5.6641,-1.3588,-2.9847,1.035
8.764,28.78,41.33,999.92,0.000000,0.000000,0.00,0,0,0.9922,-0.2839,-0.0769,0.1527,-1.0000,-0.9466,1.035
8.770,28.78,41.33,999.92,0.000000,0.000000,0.00,0,0,0.9856,-0.2925,-0.0852,0.5496,-1.2824,-0.6260,1.032
8.776,28.78,41.33,999.92,0.000000,0.000000,0.00,0,0,0.9714,-0.2871,-0.0849,0.7481,-1.9542,-0.3969,1.017
8.782,28.78,41.33,999.92,0.000000,0.000000,0.00,0,0,0.9758,-0.2944,-0.0830,0.8473,-2.1832,-0.4656,1.023
8.788,28.78,41.33,999.92,0.000000,0.000000,0.00,0,0,0.9680,-0.2910,-0.0925,0.7786,-2.5649,-0.3435,1.015
8.794,28.78,41.33,999.92,0.000000,0.000000,0.00,0,0,0.9641,-0.2961,-0.0817,0.5878,-2.5725,-0.7252,1.012
8.799,28.78,41.33,999.92,0.000000,0.000000,0.00,0,0,0.9680,-0.2983,-0.0910,1.0458,-3.0916,-0.7786,1.017
8.805,28.78,41.33,999.92,0.000000,0.000000,0.00,0,0,0.9690,-0.3027,-0.1021,1.6031,-3.3817,-0.9313,1.020
8.812,28.80,41.29,999.96,0.000000,0.000000,0.00,0,0,0.9839,-0.2661,-0.0947,-0.8779,-3.2519,-4.2519,1.024
8.886,28.80,41.29,999.96,0.000000,0.000000,0.00,0,0,0.9714,-0.2598,-0.0737,-1.8550,-3.5115,-4.5038,1.008
8.924,28.80,41.33,999.94,0.000000,0.000000,0.00,0,0,0.9995,-0.2437,-0.1235,-2.4427,-2.7557,-3.3359,1.036
8.930,28.80,41.33,999.94,0.000000,0.000000,0.00,0,0,0.9827,-0.2642,-0.1438,-1.3282,0.4809,3.5191,1.028
9.004,28.80,41.34,999.93,0.000000,0.000000,0.00,0,0,0.9854,-0.2766,-0.1418,-1.2595,0.4198,3.5496,1.033
9.009,28.79,41.34,999.93,0.000000,0.000000,0.00,0,0,0.9771,-0.2869,-0.1401,-1.0687,0.4962,3.5802,1.028
9.015,28.79,41.34,999.93,0.000000,0.000000,0.00,0,0,0.9780,-0.2903,-0.1418,-0.9847,0.6260,3.9237,1.030
9.021,28.79,41.34,999.93,0.000000,0.000000,0.00,0,0,0.9768,-0.3242,-0.1404,2.2748,2.5344,0.0534,1.039
9.096,28.79,41.34,999.93,0.000000,0.000000,0.00,0,0,0.9790,-0.3186,-0.1448,2.9160,2.4427,-0.4275,1.040
9.102,28.79,41.35,999.93,0.000000,0.000000,0.00,0,0,0.9802,-0.3105,-0.1453,3.4962,2.7023,-0.6489,1.038
9.108,28.79,41.35,999.93,0.000000,0.000000,0.00,0,0,0.9788,-0.3164,-0.1479,3.6412,2.6870,-0.6947,1.039
9.114,28.79,41.35,999.93,0.000000,0.000000,0.00,0,0,0.9741,-0.2971,-0.1411,3.7710,2.8702,-1.1221,1.028
9.314,28.80,41.33,999.94,0.000000,0.000000,0.00,0,0,0.9651,-0.2942,-0.1169,1.9466,7.4580,-2.1298,1.016
9.320,28.80,41.33,999.94,0.000000,0.000000,0.00,0,0,0.9629,-0.2830,-0.1133,1.8244,7.6183,-2.3969,1.010
9.325,28.80,41.33,999.94,0.000000,0.000000,0.00,0,0,0.9670,-0.2808,-0.1213,1.7099,7.7557,-2.5191,1.014
9.332,28.80,41.33,999.94,0.000000,0.000000,0.00,0,0,0.9685,-0.2698,-0.1147,1.7481,7.8244,-2.4046,1.012
9.338,28.80,41.33,999.94,0.000000,0.000000,0.00,0,0,0.9753,-0.2712,-0.1172,2.0763,8.0000,-2.3511,1.019
9.344,28.80,41.33,999.94,0.000000,0.000000,0.00,0,0,0.9841,-0.2544,-0.1106,2.4198,7.9084,-1.9618,1.022
9.351,28.80,41.33,999.94,0.000000,0.000000,0.00,0,0,0.9841,-0.2581,-0.1130,2.4427,7.7939,-1.3511,1.024
9.357,28.79,41.33,999.92,0.000000,0.000000,0.00,0,0,0.9614,-0.2947,-0.0891,2.5878,6.5725,2.1069,1.010
9.432,28.79,41.33,999.92,0.000000,0.000000,0.00,0,0,0.9578,-0.2974,-0.0949,2.2672,6.5496,1.9313,1.007
9.438,28.79,41.33,999.94,0.000000,0.000000,0.00,0,0,0.9624,-0.3008,-0.0837,4.1221,3.5878,-2.4733,1.012
9.654,28.80,41.33,999.94,0.000000,0.000000,0.00,0,0,0.9858,-0.2563,-0.0852,0.8092,1.6718,0.3740,1.022
9.660,28.80,41.33,999.94,0.000000,0.000000,0.00,0,0,0.9976,-0.2571,-0.0996,0.8550,1.8931,0.7176,1.035
9.666,28.80,41.33,999.94,0.000000,0.000000,0.00,0,0,0.9875,-0.2627,-0.0935,0.2366,2.1832,0.4656,1.026
9.672,28.80,41.33,999.94,0.000000,0.000000,0.00,0,0,0.9907,-0.2732,-0.1187,1.4809,1.8015,1.2748,1.035
9.678,28.80,41.33,999.94,0.000000,0.000000,0.00,0,0,0.9851,-0.2747,-0.0947,0.9695,1.9847,0.7252,1.027
9.684,28.80,41.33,999.94,0.000000,0.000000,0.00,0,0,0.9844,-0.2568,-0.1084,1.2824,2.0687,1.2748,1.023
9.690,28.81,41.34,999.95,0.000000,0.000000,0.00,0,0,0.9805,-0.2659,-0.0971,1.5267,2.2137,1.3588,1.021
9.696,28.81,41.34,999.95,0.000000,0.000000,0.00,0,0,0.9807,-0.2778,-0.1182,1.5420,2.2290,1.0153,1.026
9.702,28.81,41.34,999.95,0.000000,0.000000,0.00,0,0,0.9854,-0.2620,-0.1108,2.4504,2.2366,1.3740,1.026
9.708,28.81,41.34,999.95,0.000000,0.000000,0.00,0,0,0.9856,-0.2732,-0.1028,2.8626,2.2061,1.7176,1.028
9.974,28.80,41.34,999.95,0.000000,0.000000,0.00,0,0,0.9648,-0.2766,-0.0705,1.8168,1.6565,-0.4504,1.006
9.980,28.80,41.34,999.95,0.000000,0.000000,0.00,0,0,0.9780,-0.2773,-0.0876,2.2443,1.9924,-0.4351,1.020
9.986,28.80,41.38,999.95,0.000000,0.000000,0.00,0,0,0.9797,-0.2732,-0.0903,2.1985,1.8702,-0.6183,1.021
9.992,28.80,41.38,999.95,0.000000,0.000000,0.00,0,0,0.9866,-0.2776,-0.0878,2.1908,1.9618,-0.5878,1.029
9.998,28.80,41.38,999.95,0.000000,0.000000,0.00,0,0,1.0022,-0.2632,-0.1006,2.1374,1.9847,-0.5496,1.041
10.004,28.80,41.38,999.95,0.000000,0.000000,0.00,0,0,0.9890,-0.2600,-0.0949,1.9389,2.1221,-0.3511,1.027
10.009,28.80,41.38,999.95,0.000000,0.000000,0.00,0,0,0.9888,-0.2688,-0.0961,1.9847,2.1756,-0.4962,1.029
10.016,28.80,41.38,999.95,0.000000,0.000000,0.00,0,0,0.9951,-0.2620,-0.0954,1.5649,2.4962,-0.2290,1.033
10.021,28.80,41.38,999.95,0.000000,0.000000,0.00,0,0,0.9907,-0.2622,-0.1011,1.7557,2.3817,-0.0916,1.030
10.027,28.80,41.38,999.95,0.000000,0.000000,0.00,0,0,0.9922,-0.2622,-0.1001,1.7557,2.5573,0.0534,1.031
10.118,28.78,41.34,999.90,0.000000,0.000000,0.00,0,0,0.9885,-0.2686,-0.0922,2.4885,2.9924,-0.1985,1.029
10.124,28.78,41.34,999.90,0.000000,0.000000,0.00,0,0,0.9941,-0.2593,-0.0918,2.3053,3.1679,-0.2061,1.031
10.130,28.78,41.34,999.90,0.000000,0.000000,0.00,0,0,0.9890,-0.2686,-0.0949,2.1756,3.1298,0.0000,1.029
10.136,28.78,41.34,999.90,0.000000,0.000000,0.00,0,0,0.9875,-0.2642,-0.0949,2.0763,3.2672,-0.0076,1.027
10.142,28.78,41.34,999.90,0.000000,0.000000,0.00,0,0,0.9841,-0.2568,-0.0896,2.0000,3.5649,0.0000,1.021
10.148,28.78,41.34,999.90,0.000000,0.000000,0.00,0,0,0.9800,-0.2632,-0.0871,1.8473,3.5802,0.2519,1.018
10.154,28.78,41.34,999.90,0.000000,0.000000,0.00,0,0,0.9768,-0.2595,-0.0891,1.6565,3.5420,0.3511,1.015
10.160,28.78,41.34,999.90,0.000000,0.000000,0.00,0,0,0.9771,-0.2659,-0.0891,1.8244,3.5191,0.4046,1.016
10.166,28.78,41.34,999.90,0.000000,0.000000,0.00,0,0,0.9780,-0.2664,-0.0810,2.1450,3.5191,0.5038,1.017
10.172,28.78,41.34,999.90,0.000000,0.000000,0.00,0,0,0.9724,-0.2751,-0.0752,2.3206,3.3359,0.4046,1.013
10.480,28.80,41.34,999.97,0.000000,0.000000,0.00,0,0,0.9749,-0.2715,-0.0773,-4.3817,2.0000,-1.4427,1.015
10.486,28.80,41.34,999.97,0.000000,0.000000,0.00,0,0,0.9763,-0.2720,-0.0725,-4.4046,1.9847,-1.7557,1.016
10.492,28.80,41.34,999.97,0.000000,0.000000,0.00,0,0,0.9751,-0.2649,-0.0893,-4.4122,1.7176,-1.3588,1.014
10.498,28.80,41.34,999.97,0.000000,0.000000,0.00,0,0,0.9849,-0.2532,-0.0752,-3.5802,1.6336,-1.1374,1.020
10.504,28.80,41.34,999.97,0.000000,0.000000,0.00,0,0,0.9775,-0.2520,-0.0749,-2.9237,1.1603,-1.0840,1.012
10.510,28.80,41.34,999.97,0.000000,0.000000,0.00,0,0,0.9775,-0.2378,-0.0720,-1.8473,0.7023,-0.6870,1.009
10.516,28.80,41.34,999.97,0.000000,0.000000,0.00,0,0,0.9863,-0.2378,-0.0810,-0.5573,0.2290,0.1527,1.018
10.522,28.80,41.34,999.97,0.000000,0.000000,0.00,0,0,0.9895,-0.2400,-0.0815,0.5496,-0.5115,0.9237,1.021
10.528,28.80,41.34,999.97,0.000000,0.000000,0.00,0,0,0.9976,-0.2390,-0.0778,1.5496,-0.5802,1.5573,1.029
10.534,28.80,41.34,999.97,0.000000,0.000000,0.00,0,0,1.0044,-0.2456,-0.0893,1.8473,-0.8092,2.1756,1.038
10.646,28.78,41.34,999.92,0.000000,0.000000,0.00,0,0,0.9893,-0.2830,-0.1089,1.9924,-0.5420,1.4427,1.035
10.652,28.78,41.34,999.92,0.000000,0.000000,0.00,0,0,0.9919,-0.2856,-0.1208,3.2595,-0.5725,1.7405,1.039
10.658,28.78,41.34,999.92,0.000000,0.000000,0.00,0,0,0.9937,-0.2915,-0.1133,4.0153,-0.3740,1.9389,1.042
10.664,28.78,41.34,999.92,0.000000,0.000000,0.00,0,0,0.9875,-0.2952,-0.1128,4.4275,-0.3282,1.7939,1.037
10.670,28.81,41.36,999.93,0.000000,0.000000,0.00,0,0,0.9890,-0.2944,-0.1201,4.5267,-0.0305,2.0153,1.039
10.676,28.81,41.36,999.93,0.000000,0.000000,0.00,0,0,0.9875,-0.2944,-0.1118,4.9313,0.3130,1.5115,1.037
10.682,28.81,41.36,999.93,0.000000,0.000000,0.00,0,0,0.9854,-0.2876,-0.1167,4.5191,0.4427,1.7099,1.033
10.688,28.81,41.36,999.93,0.000000,0.000000,0.00,0,0,0.9856,-0.2896,-0.1091,4.6870,1.0458,1.3893,1.033
10.694,28.81,41.36,999.93,0.000000,0.000000,0.00,0,0,0.9380,-0.2622,-0.1724,9.0382,0.2672,-0.2748,0.989
10.700,28.81,41.36,999.93,0.000000,0.000000,0.00,0,0,0.9473,-0.2903,-0.1218,8.8168,0.4122,2.5878,0.998
10.812,28.78,41.34,999.91,0.000000,0.000000,0.00,0,0,0.9766,-0.2849,-0.1025,3.3053,2.8015,0.2290,1.022
10.818,28.78,41.34,999.96,0.000000,0.000000,0.00,0,0,0.9810,-0.2617,-0.0803,0.2519,2.5420,-0.9084,1.018
10.893,28.81,41.33,999.97,0.000000,0.000000,0.00,0,0,0.9829,-0.2744,-0.0773,-0.3511,2.5725,-0.9618,1.023
10.967,28.80,41.33,999.97,0.000000,0.000000,0.00,0,0,0.9771,-0.2710,-0.0893,-0.5420,2.7252,-1.5115,1.018
10.974,28.80,41.33,999.97,0.000000,0.000000,0.00,0,0,0.9846,-0.2769,-0.0815,-0.1221,2.5420,-1.0458,1.026
10.980,28.80,41.33,999.97,0.000000,0.000000,0.00,0,0,0.9854,-0.2651,-0.0778,0.1832,2.4198,-1.3282,1.023
10.986,28.80,41.33,999.97,0.000000,0.000000,0.00,0,0,0.9937,-0.2644,-0.0859,0.6031,2.2443,-1.0229,1.032
10.992,28.80,41.33,999.97,0.000000,0.000000,0.00,0,0,0.9912,-0.2568,-0.0791,0.6489,2.1832,-0.9313,1.027
10.998,28.80,41.33,999.97,0.000000,0.000000,0.00,0,0,1.0046,-0.2573,-0.0793,0.5954,2.1450,-0.9389,1.040
11.004,28.80,41.33,999.97,0.000000,0.000000,0.00,0,0,1.0042,-0.2651,-0.0839,0.5802,1.7328,-0.8626,1.042
11.194,28.81,41.35,999.97,0.000000,0.000000,0.00,0,0,0.9878,-0.3157,-0.0849,0.1603,-1.9847,0.5649,1.040
11.200,28.81,41.35,999.97,0.000000,0.000000,0.00,0,0,0.9890,-0.3057,-0.0935,-0.4962,-2.0000,0.0381,1.039
11.206,28.81,41.35,999.97,0.000000,0.000000,0.00,0,0,0.9817,-0.2952,-0.0903,-1.2748,-1.8015,-0.5420,1.029
11.212,28.81,41.35,999.97,0.000000,0.000000,0.00,0,0,0.9768,-0.2827,-0.0969,-1.6336,-1.8015,-0.7252,1.022
11.218,28.81,41.35,999.97,0.000000,0.000000,0.00,0,0,0.9675,-0.2747,-0.1030,-1.4427,-1.7328,-1.4733,1.011
11.224,28.81,41.35,999.95,0.000000,0.000000,0.00,0,0,0.9814,-0.2407,-0.1206,-1.2595,-0.7557,-2.8779,1.018
11.298,28.81,41.35,999.95,0.000000,0.000000,0.00,0,0,0.9915,-0.2451,-0.1140,-1.5725,-0.0839,-3.0840,1.028
11.305,28.81,41.34,999.99,0.000000,0.000000,0.00,0,0,0.9697,-0.2629,-0.1047,0.1527,5.3893,-1.5038,1.010
11.379,28.81,41.34,999.99,0.000000,0.000000,0.00,0,0,0.9675,-0.2551,-0.0944,0.3817,5.1679,-1.5420,1.005
11.385,28.81,41.34,999.99,0.000000,0.000000,0.00,0,0,0.9646,-0.2573,-0.0991,0.4351,5.1832,-1.7634,1.003
11.554,28.81,41.34,999.96,0.000000,0.000000,0.00,0,0,0.9702,-0.2375,-0.0668,1.0458,7.9389,0.1832,1.001
11.560,28.81,41.34,999.96,0.000000,0.000000,0.00,0,0,0.9678,-0.2393,-0.0625,0.8779,7.3817,0.5954,0.999
11.566,28.81,41.34,999.96,0.000000,0.000000,0.00,0,0,0.9739,-0.2388,-0.0581,0.5496,7.2748,0.7786,1.004
11.572,28.81,41.34,999.96,0.000000,0.000000,0.00,0,0,0.9976,-0.2461,-0.0600,-9.6336,5.9313,2.3817,1.029
11.647,28.81,41.34,999.94,0.000000,0.000000,0.00,0,0,0.9875,-0.2515,-0.0634,-9.5115,5.4351,2.9084,1.021
11.653,28.80,41.34,999.94,0.000000,0.000000,0.00,0,0,0.9656,-0.2915,-0.0686,-8.1298,3.2061,1.1221,1.011
11.728,28.80,41.34,999.94,0.000000,0.000000,0.00,0,0,0.9709,-0.2893,-0.0725,-8.8855,2.9466,0.6183,1.016
11.734,28.80,41.34,999.94,0.000000,0.000000,0.00,0,0,0.9739,-0.2893,-0.0686,-9.3053,2.7176,0.0839,1.018
11.740,28.80,41.34,999.94,0.000000,0.000000,0.00,0,0,0.9763,-0.2844,-0.0808,-9.4885,2.5649,0.2595,1.020
11.746,28.81,41.35,999.96,0.000000,0.000000,0.00,0,0,0.9768,-0.2896,-0.0778,-9.5725,2.2290,-0.1527,1.022
11.884,28.81,41.34,999.97,0.000000,0.000000,0.00,0,0,0.9639,-0.3008,-0.1089,-7.8397,-0.7481,-0.0152,1.016
11.890,28.81,41.34,999.97,0.000000,0.000000,0.00,0,0,0.9727,-0.3003,-0.1191,-7.2519,-0.9847,-0.0916,1.025
11.896,28.81,41.34,999.97,0.000000,0.000000,0.00,0,0,0.9766,-0.2986,-0.1135,-6.7099,-1.1985,-0.0076,1.027
11.902,28.82,41.34,999.97,0.000000,0.000000,0.00,0,0,0.9668,-0.2930,-0.0991,-4.5344,-0.3740,-0.8092,1.015
11.977,28.82,41.34,999.97,0.000000,0.000000,0.00,0,0,0.9680,-0.2917,-0.1067,-4.5191,-0.7939,-0.6947,1.017
11.983,28.82,41.34,999.97,0.000000,0.000000,0.00,0,0,0.9753,-0.2966,-0.1096,-3.4351,-2.0534,-1.0687,1.025
12.057,28.82,41.34,999.97,0.000000,0.000000,0.00,0,0,0.9778,-0.2910,-0.1265,-3.3282,-2.0687,-1.1527,1.028
12.063,28.82,41.34,999.97,0.000000,0.000000,0.00,0,0,0.9827,-0.2874,-0.1167,-3.2748,-1.6870,-1.1679,1.030
12.069,28.82,41.34,999.97,0.000000,0.000000,0.00,0,0,0.9873,-0.2876,-0.1111,-3.5496,-1.6031,-1.1679,1.034
12.075,28.82,41.34,999.97,0.000000,0.000000,0.00,0,0,0.9927,-0.2849,-0.1150,-3.8473,-1.3664,-1.0916,1.039
12.428,28.82,41.34,999.98,0.000000,0.000000,0.00,0,0,0.9863,-0.2983,-0.1338,3.2519,2.9695,7.4504,1.039
12.434,28.82,41.33,999.97,0.000000,0.000000,0.00,0,0,0.9888,-0.2954,-0.1318,3.3511,2.8626,7.9618,1.040
12.440,28.82,41.33,999.97,0.000000,0.000000,0.00,0,0,0.9407,-0.3757,-0.1067,3.5573,2.9542,7.6565,1.019
12.515,28.82,41.33,999.97,0.000000,0.000000,0.00,0,0,0.9395,-0.3713,-0.1011,3.4351,2.6489,7.0153,1.015
12.521,28.82,41.33,999.97,0.000000,0.000000,0.00,0,0,0.9380,-0.3816,-0.1074,3.0229,2.6565,6.2214,1.018
12.527,28.82,41.33,999.97,0.000000,0.000000,0.00,0,0,0.9443,-0.3835,-0.1025,3.4046,2.4427,6.1221,1.024
12.533,28.81,41.33,999.97,0.000000,0.000000,0.00,0,0,0.9270,-0.3767,-0.0539,2.3053,2.0611,5.8397,1.002
12.539,28.81,41.33,999.97,0.000000,0.000000,0.00,0,0,0.9602,-0.3633,-0.0913,3.3206,2.1832,5.1832,1.031
12.545,28.81,41.33,999.97,0.000000,0.000000,0.00,0,0,0.9497,-0.4031,-0.1125,3.6031,1.8855,4.3282,1.038
12.551,28.81,41.33,999.97,0.000000,0.000000,0.00,0,0,0.9504,-0.3889,-0.1055,3.5954,1.6947,4.3893,1.032
12.684,28.80,41.33,999.92,0.000000,0.000000,0.00,0,0,0.9663,-0.2954,-0.1050,0.7710,-1.4275,-5.8855,1.016
12.690,28.80,41.33,999.92,0.000000,0.000000,0.00,0,0,0.9709,-0.2881,-0.1130,0.6641,-1.5344,-5.7634,1.019
12.696,28.80,41.33,999.92,0.000000,0.000000,0.00,0,0,0.9722,-0.2830,-0.1133,0.6107,-1.6870,-5.7023,1.019
12.702,28.80,41.33,999.92,0.000000,0.000000,0.00,0,0,0.9707,-0.2764,-0.1069,0.4504,-1.8702,-5.7099,1.015
12.708,28.80,41.33,999.92,0.000000,0.000000,0.00,0,0,0.9790,-0.2712,-0.1074,0.0000,-2.0000,-5.4809,1.022
12.714,28.80,41.33,999.92,0.000000,0.000000,0.00,0,0,0.9785,-0.2590,-0.1084,-0.3053,-1.8626,-5.4122,1.018
12.720,28.80,41.33,999.92,0.000000,0.000000,0.00,0,0,0.9736,-0.2639,-0.1050,-0.4962,-2.0534,-5.2519,1.014
12.726,28.82,41.33,999.95,0.000000,0.000000,0.00,0,0,0.9839,-0.2603,-0.1064,-0.7405,-2.3053,-5.0763,1.023
12.732,28.82,41.33,999.95,0.000000,0.000000,0.00,0,0,0.9924,-0.2556,-0.1016,-0.7863,-2.2748,-4.9542,1.030
12.738,28.82,41.33,999.95,0.000000,0.000000,0.00,0,0,0.9934,-0.2520,-0.1118,-0.9160,-2.4580,-4.3511,1.031
12.828,28.81,41.33,999.92,0.000000,0.000000,0.00,0,0,0.9824,-0.2766,-0.1248,-2.3053,-4.6183,1.7099,1.028
12.834,28.81,41.33,999.92,0.000000,0.000000,0.00,0,0,0.9944,-0.2815,-0.1270,-2.7863,-4.7481,1.8092,1.041
12.840,28.81,41.33,999.92,0.000000,0.000000,0.00,0,0,0.9988,-0.2727,-0.1218,-3.6412,-4.8931,2.0611,1.042
12.846,28.81,41.33,999.92,0.000000,0.000000,0.00,0,0,1.0142,-0.2751,-0.1316,-4.2595,-4.5496,2.4885,1.059
12.852,28.81,41.33,999.92,0.000000,0.000000,0.00,0,0,1.0125,-0.2705,-0.1304,-4.8092,-4.6870,2.5420,1.056
12.859,28.81,41.33,999.92,0.000000,0.000000,0.00,0,0,1.0203,-0.2791,-0.1362,-5.5573,-4.7405,3.1298,1.066
12.864,28.81,41.33,999.92,0.000000,0.000000,0.00,0,0,1.0249,-0.2798,-0.1404,-6.1756,-4.8855,3.5115,1.072
12.871,28.79,41.33,999.90,0.000000,0.000000,0.00,0,0,0.9651,-0.3635,-0.1887,-8.9924,-5.5344,2.6718,1.048
13.014,28.79,41.33,999.90,0.000000,0.000000,0.00,0,0,0.9749,-0.3362,-0.2056,-9.0840,-5.0458,2.8779,1.051
13.020,28.82,41.32,999.94,0.000000,0.000000,0.00,0,0,0.9705,-0.3616,-0.2129,3.9847,0.6565,3.8626,1.057
13.264,28.82,41.34,999.94,0.000000,0.000000,0.00,0,0,0.9395,-0.3491,-0.1362,8.5496,5.9771,0.5267,1.011
13.270,28.82,41.34,999.94,0.000000,0.000000,0.00,0,0,0.9368,-0.3462,-0.1377,8.2595,5.7405,-0.0076,1.008
13.276,28.82,41.34,999.94,0.000000,0.000000,0.00,0,0,0.9392,-0.3530,-0.1299,8.3588,5.1298,-0.1908,1.012
13.282,28.82,41.33,999.96,0.000000,0.000000,0.00,0,0,0.9788,-0.2847,-0.1411,5.2137,-0.3511,0.4122,1.029
13.426,28.82,41.33,999.96,0.000000,0.000000,0.00,0,0,0.9773,-0.2864,-0.1404,4.9008,-0.4122,0.5954,1.028
13.432,28.82,41.33,999.96,0.000000,0.000000,0.00,0,0,0.9836,-0.3008,-0.1619,6.3206,1.3969,3.5878,1.041
13.507,28.82,41.32,999.94,0.000000,0.000000,0.00,0,0,0.9783,-0.3120,-0.1526,6.5802,1.4046,3.1374,1.038
13.513,28.82,41.32,999.94,0.000000,0.000000,0.00,0,0,0.9834,-0.3206,-0.1599,6.5954,2.0534,3.0687,1.047
13.519,28.82,41.32,999.94,0.000000,0.000000,0.00,0,0,0.9785,-0.3257,-0.1511,6.3588,2.5802,2.6260,1.042
13.525,28.82,41.32,999.94,0.000000,0.000000,0.00,0,0,0.9790,-0.3242,-0.1506,5.8626,2.7023,2.1603,1.042
13.578,28.82,41.32,999.94,0.000000,0.000000,0.00,0,0,0.9878,-0.2964,-0.1406,6.2061,3.2290,2.0382,1.041
13.584,28.82,41.32,999.94,0.000000,0.000000,0.00,0,0,0.9783,-0.2859,-0.1375,6.9466,3.6336,1.9695,1.028
13.590,28.82,41.32,999.94,0.000000,0.000000,0.00,0,0,0.9790,-0.3123,-0.1514,6.9542,3.4885,1.6870,1.039
13.596,28.82,41.32,999.94,0.000000,0.000000,0.00,0,0,0.9741,-0.3098,-0.1467,7.0763,3.7786,1.9847,1.033
13.602,28.80,41.31,999.91,0.000000,0.000000,0.00,0,0,0.9922,-0.3071,-0.1172,3.3893,5.2748,0.0229,1.045
13.677,28.80,41.31,999.91,0.000000,0.000000,0.00,0,0,0.9932,-0.3091,-0.1125,3.3053,5.2137,0.1603,1.046
13.683,28.82,41.33,999.92,0.000000,0.000000,0.00,0,0,0.9727,-0.2869,-0.1189,2.5038,5.2137,-1.5725,1.021
13.758,28.82,41.33,999.92,0.000000,0.000000,0.00,0,0,0.9792,-0.2854,-0.1282,2.2977,5.3435,-1.5878,1.028
13.764,28.82,41.33,999.92,0.000000,0.000000,0.00,0,0,0.9856,-0.2854,-0.1221,1.9160,5.3969,-1.8779,1.033
13.770,28.82,41.33,999.92,0.000000,0.000000,0.00,0,0,0.9846,-0.2861,-0.1208,1.8550,5.8321,-1.8779,1.032
13.914,28.83,41.33,999.93,0.000000,0.000000,0.00,0,0,0.9819,-0.2573,-0.1042,-1.2977,5.0076,-0.1298,1.020
13.920,28.83,41.33,999.93,0.000000,0.000000,0.00,0,0,0.9797,-0.2610,-0.0922,-1.5344,4.8244,0.2824,1.018
13.926,28.83,41.33,999.93,0.000000,0.000000,0.00,0,0,0.9788,-0.2664,-0.0856,-1.9389,4.3817,0.4885,1.018
13.932,28.81,41.33,999.90,0.000000,0.000000,0.00,0,0,0.9929,-0.2629,-0.1050,-1.6947,2.1527,6.0534,1.032
14.007,28.81,41.33,999.90,0.000000,0.000000,0.00,0,0,0.9702,-0.2666,-0.0979,-1.3969,2.1374,6.9771,1.011
14.013,28.81,41.33,999.90,0.000000,0.000000,0.00,0,0,0.9133,-0.3428,-0.1177,-2.4580,-0.7099,4.2595,0.983
14.088,28.81,41.33,999.90,0.000000,0.000000,0.00,0,0,0.9214,-0.3423,-0.1213,-2.5191,-0.7405,3.6641,0.990
14.094,28.81,41.33,999.91,0.000000,0.000000,0.00,0,0,0.9187,-0.3462,-0.1226,-2.6565,-0.7328,2.7023,0.989
14.100,28.82,41.33,999.91,0.000000,0.000000,0.00,0,0,0.9294,-0.3420,-0.1174,-2.8244,-0.8321,2.0382,0.997
14.106,28.82,41.33,999.91,0.000000,0.000000,0.00,0,0,0.9309,-0.3586,-0.1277,-2.7939,-0.8168,1.2366,1.006
14.244,28.81,41.33,999.92,0.000000,0.000000,0.00,0,0,0.9927,-0.2974,-0.1653,-2.3053,1.7710,-1.0611,1.049
14.250,28.81,41.33,999.92,0.000000,0.000000,0.00,0,0,0.9900,-0.2949,-0.1538,-2.1145,2.1069,-0.5496,1.044
14.256,28.81,41.33,999.92,0.000000,0.000000,0.00,0,0,0.9817,-0.2991,-0.1531,-1.8473,2.4122,-0.2443,1.038
14.262,28.83,41.33,999.95,0.000000,0.000000,0.00,0,0,0.9856,-0.3240,-0.1458,1.0153,5.2061,2.4580,1.048
14.337,28.83,41.33,999.95,0.000000,0.000000,0.00,0,0,0.9829,-0.3257,-0.1467,1.1756,5.4198,2.8626,1.046
14.343,28.83,41.32,999.97,0.000000,0.000000,0.00,0,0,0.9624,-0.3596,-0.1123,0.8244,4.2824,1.0687,1.034
14.418,28.83,41.32,999.97,0.000000,0.000000,0.00,0,0,0.9526,-0.3623,-0.1086,0.7557,4.0916,0.9084,1.025
14.424,28.83,41.32,999.97,0.000000,0.000000,0.00,0,0,0.9556,-0.3618,-0.1116,0.7557,3.8626,0.6718,1.028
14.430,28.83,41.32,999.97,0.000000,0.000000,0.00,0,0,0.9539,-0.3481,-0.1082,0.5878,3.5267,0.4046,1.021
14.436,28.83,41.32,999.97,0.000000,0.000000,0.00,0,0,0.9551,-0.3481,-0.1121,0.5954,3.3053,0.1908,1.023
14.475,28.83,41.32,999.97,0.000000,0.000000,0.00,0,0,0.9536,-0.3389,-0.1221,0.1069,1.8321,-0.8244,1.019
14.481,28.83,41.32,999.97,0.000000,0.000000,0.00,0,0,0.9617,-0.3345,-0.1404,0.2061,1.7710,-0.5496,1.028
14.487,28.82,41.28,999.92,0.000000,0.000000,0.00,0,0,0.9495,-0.3347,-0.1372,0.6107,1.4504,-0.6412,1.016
14.493,28.82,41.28,999.92,0.000000,0.000000,0.00,0,0,0.9546,-0.3293,-0.1260,0.8397,1.5115,-0.3664,1.018
14.499,28.82,41.28,999.92,0.000000,0.000000,0.00,0,0,0.9639,-0.3179,-0.1230,1.1069,1.1679,0.0763,1.022
14.505,28.82,41.28,999.92,0.000000,0.000000,0.00,0,0,0.9678,-0.3186,-0.1272,1.3206,1.1985,0.5038,1.027
14.511,28.82,41.28,999.92,0.000000,0.000000,0.00,0,0,0.9688,-0.3142,-0.1248,1.4198,1.2748,0.8397,1.026
14.517,28.82,41.28,999.92,0.000000,0.000000,0.00,0,0,0.9712,-0.3127,-0.1272,1.7481,1.1832,1.3588,1.028
14.523,28.82,41.28,999.92,0.000000,0.000000,0.00,0,0,0.9751,-0.3145,-0.1101,1.5878,1.1756,1.4885,1.030
14.529,28.82,41.28,999.92,0.000000,0.000000,0.00,0,0,0.9771,-0.3174,-0.1135,1.3893,1.0229,1.9618,1.034
14.784,28.83,41.32,999.96,0.000000,0.000000,0.00,0,0,0.9768,-0.3481,-0.1541,-1.4580,-2.2977,3.1985,1.048
14.790,28.83,41.32,999.96,0.000000,0.000000,0.00,0,0,0.9734,-0.3513,-0.1516,-1.5496,-2.5267,3.2290,1.046
14.796,28.83,41.32,999.96,0.000000,0.000000,0.00,0,0,0.9753,-0.3562,-0.1526,-2.2061,-2.8244,3.3282,1.050
14.802,28.83,41.32,999.96,0.000000,0.000000,0.00,0,0,0.9712,-0.3572,-0.1367,-2.4733,-3.0229,3.3359,1.044
14.808,28.83,41.32,999.96,0.000000,0.000000,0.00,0,0,0.9712,-0.3606,-0.1433,-2.8321,-3.2290,3.3817,1.046
14.814,28.83,41.32,999.96,0.000000,0.000000,0.00,0,0,0.9631,-0.3669,-0.1475,-3.4733,-3.1985,3.4427,1.041
14.820,28.83,41.32,999.96,0.000000,0.000000,0.00,0,0,0.9609,-0.3647,-0.1509,-3.7099,-3.1527,3.4122,1.039
14.826,28.83,41.32,999.96,0.000000,0.000000,0.00,0,0,0.9497,-0.3721,-0.1531,-3.8321,-3.3588,3.0076,1.031
14.832,28.83,41.32,999.96,0.000000,0.000000,0.00,0,0,0.9485,-0.3743,-0.1555,-3.8931,-3.6031,2.9313,1.031
14.838,28.83,41.32,999.96,0.000000,0.000000,0.00,0,0,0.9382,-0.3806,-0.1621,-3.5725,-3.6718,3.0458,1.025
15.084,28.83,41.31,999.96,0.000000,0.000000,0.00,0,0,0.9473,-0.3630,-0.1826,5.5267,2.5878,1.9084,1.031
15.090,28.83,41.31,999.96,0.000000,0.000000,0.00,0,0,0.9456,-0.3696,-0.1855,5.7023,2.3969,1.7176,1.032
15.096,28.83,41.31,999.96,0.000000,0.000000,0.00,0,0,0.9492,-0.3691,-0.1790,6.1756,2.4733,1.7176,1.034
15.102,28.83,41.30,999.91,0.000000,0.000000,0.00,0,0,0.9434,-0.3787,-0.1667,8.6260,2.7939,0.6870,1.030
15.177,28.81,41.30,999.91,0.000000,0.000000,0.00,0,0,0.9399,-0.3726,-0.1646,8.6107,2.8779,0.5191,1.024
15.183,28.81,41.30,999.91,0.000000,0.000000,0.00,0,0,0.9351,-0.3699,-0.1758,8.5191,3.0534,0.4656,1.021
15.189,28.81,41.30,999.91,0.000000,0.000000,0.00,0,0,0.9443,-0.3657,-0.1736,8.8702,2.9008,0.3893,1.027
15.195,28.81,41.30,999.91,0.000000,0.000000,0.00,0,0,0.9448,-0.3589,-0.1682,9.0382,2.9160,0.5802,1.025
15.201,28.81,41.30,999.88,0.000000,0.000000,0.00,0,0,0.9290,-0.3645,-0.1492,9.8855,2.4733,-0.7023,1.009
15.276,28.81,41.30,999.88,0.000000,0.000000,0.00,0,0,0.9363,-0.3596,-0.1299,9.7328,2.4885,-0.6489,1.011
15.419,28.83,41.31,999.92,0.000000,0.000000,0.00,0,0,0.9736,-0.3188,-0.1472,8.9008,0.4962,-0.2519,1.035
15.425,28.83,41.31,999.92,0.000000,0.000000,0.00,0,0,0.9807,-0.3132,-0.1555,9.1298,0.6947,0.3969,1.041
15.431,28.83,41.31,999.92,0.000000,0.000000,0.00,0,0,0.9795,-0.3184,-0.1472,9.6565,0.6641,0.8931,1.040
15.437,28.83,41.31,999.92,0.000000,0.000000,0.00,0,0,0.9651,-0.3372,-0.1367,8.9160,0.6336,2.3206,1.031
15.512,28.83,41.31,999.92,0.000000,0.000000,0.00,0,0,0.9648,-0.3384,-0.1365,9.3435,0.8244,2.8855,1.032
15.518,28.83,41.31,999.92,0.000000,0.000000,0.00,0,0,0.9734,-0.3423,-0.1340,9.6260,0.6031,2.8855,1.040
15.524,28.83,41.31,999.92,0.000000,0.000000,0.00,0,0,0.9749,-0.3428,-0.1338,9.4275,0.4885,3.1450,1.042
15.530,28.83,41.31,999.92,0.000000,0.000000,0.00,0,0,0.9695,-0.3525,-0.1326,9.2366,0.5191,3.0076,1.040
15.536,28.83,41.31,999.92,0.000000,0.000000,0.00,0,0,0.9622,-0.3594,-0.1306,8.7863,0.2443,2.8321,1.035
15.542,28.83,41.31,999.92,0.000000,0.000000,0.00,0,0,0.9536,-0.3557,-0.1292,8.5344,0.3130,2.7328,1.026
15.690,28.83,41.31,999.92,0.000000,0.000000,0.00,0,0,0.9634,-0.3257,-0.1282,3.3740,-2.2748,-1.6870,1.025
15.696,28.83,41.31,999.92,0.000000,0.000000,0.00,0,0,0.9639,-0.3271,-0.1443,3.3664,-2.1985,-1.9084,1.028
15.702,28.83,41.31,999.92,0.000000,0.000000,0.00,0,0,0.9563,-0.3254,-0.1443,2.9389,-2.1069,-2.1374,1.020
15.708,28.83,41.31,999.92,0.000000,0.000000,0.00,0,0,0.9604,-0.3223,-0.1440,3.0916,-2.2137,-1.8550,1.023
15.714,28.83,41.31,999.92,0.000000,0.000000,0.00,0,0,0.9592,-0.3213,-0.1404,3.2137,-1.9771,-1.8550,1.021
15.720,28.83,41.31,999.92,0.000000,0.000000,0.00,0,0,0.9631,-0.3228,-0.1545,3.1145,-2.0305,-1.8168,1.027
15.726,28.83,41.31,999.92,0.000000,0.000000,0.00,0,0,0.9602,-0.3286,-0.1523,3.2672,-1.8855,-1.3588,1.026
15.732,28.83,41.31,999.92,0.000000,0.000000,0.00,0,0,0.9585,-0.3264,-0.1501,3.6641,-1.9542,-1.4351,1.024
15.738,28.83,41.31,999.92,0.000000,0.000000,0.00,0,0,0.9629,-0.3186,-0.1462,3.7634,-2.0916,-1.6260,1.025
15.744,28.83,41.31,999.92,0.000000,0.000000,0.00,0,0,0.9697,-0.3223,-0.1570,3.8779,-2.1603,-1.4733,1.034
16.044,28.84,41.31,999.95,0.000000,0.000000,0.00,0,0,0.9453,-0.3167,-0.1179,8.8931,6.0229,0.4351,1.004
16.050,28.84,41.31,999.95,0.000000,0.000000,0.00,0,0,0.9368,-0.3120,-0.1221,8.5038,5.9847,-0.0458,0.995
16.056,28.83,41.30,999.93,0.000000,0.000000,0.00,0,0,0.9434,-0.3208,-0.1218,8.4046,6.1298,-0.6107,1.004
16.062,28.83,41.30,999.93,0.000000,0.000000,0.00,0,0,0.9832,-0.3025,-0.1284,1.8168,8.3893,-3.5191,1.037
16.137,28.83,41.30,999.93,0.000000,0.000000,0.00,0,0,0.9858,-0.3027,-0.1206,2.3130,8.4733,-3.3511,1.038
16.143,28.83,41.30,999.93,0.000000,0.000000,0.00,0,0,0.9709,-0.2952,-0.0910,7.5420,9.0229,1.1908,1.019
16.218,28.83,41.30,999.93,0.000000,0.000000,0.00,0,0,0.9683,-0.3088,-0.0849,7.0076,9.2672,1.4275,1.020
16.224,28.83,41.30,999.93,0.000000,0.000000,0.00,0,0,0.9617,-0.3130,-0.0822,7.2443,9.0382,1.9771,1.015
16.230,28.83,41.30,999.93,0.000000,0.000000,0.00,0,0,0.9641,-0.3188,-0.0695,7.2214,8.6718,2.1832,1.018
16.236,28.83,41.30,999.93,0.000000,0.000000,0.00,0,0,0.9534,-0.3301,-0.0615,6.9466,8.2443,2.1908,1.011
16.354,28.83,41.30,999.93,0.000000,0.000000,0.00,0,0,0.9702,-0.3074,-0.0773,-4.0458,-3.8168,0.7405,1.021
16.360,28.83,41.30,999.93,0.000000,0.000000,0.00,0,0,0.9685,-0.2964,-0.0957,-4.8702,-4.0305,1.2901,1.017
16.366,28.83,41.30,999.93,0.000000,0.000000,0.00,0,0,0.9651,-0.2866,-0.1028,-5.5649,-4.0229,1.3740,1.012
16.372,28.83,41.30,999.93,0.000000,0.000000,0.00,0,0,0.9724,-0.2993,-0.0983,-6.0153,-3.8626,1.5725,1.022
16.378,28.83,41.30,999.93,0.000000,0.000000,0.00,0,0,0.9741,-0.2898,-0.1033,-6.4580,-3.9771,1.9160,1.022
16.384,28.83,41.30,999.93,0.000000,0.000000,0.00,0,0,0.9707,-0.2886,-0.1084,-6.8626,-3.6336,2.6489,1.018
16.390,28.83,41.29,999.90,0.000000,0.000000,0.00,0,0,0.9771,-0.3557,-0.1323,-4.4275,0.6794,5.5420,1.048
16.464,28.81,41.29,999.90,0.000000,0.000000,0.00,0,0,0.9746,-0.3645,-0.1296,-4.2137,0.4046,5.4809,1.049
16.470,28.81,41.29,999.90,0.000000,0.000000,0.00,0,0,0.9167,-0.3906,-0.1479,-2.8702,-2.1145,-0.7634,1.007
16.545,28.83,41.28,999.95,0.000000,0.000000,0.00,0,0,0.9050,-0.3850,-0.1270,-2.4656,-2.5191,-1.2672,0.992
16.641,28.83,41.30,999.94,0.000000,0.000000,0.00,0,0,0.9800,-0.3213,-0.1611,1.0382,-3.8473,-3.7863,1.044
16.647,28.83,41.30,999.94,0.000000,0.000000,0.00,0,0,1.0000,-0.3257,-0.1611,0.6794,-3.1985,-3.3206,1.064
16.653,28.83,41.30,999.94,0.000000,0.000000,0.00,0,0,1.0032,-0.3196,-0.1584,0.4504,-2.4733,-2.9160,1.065
16.659,28.83,41.30,999.94,0.000000,0.000000,0.00,0,0,1.0083,-0.3140,-0.1550,0.5115,-2.1298,-2.7557,1.067
16.665,28.83,41.30,999.94,0.000000,0.000000,0.00,0,0,1.0164,-0.3066,-0.1587,-0.1298,-1.3511,-2.3206,1.073
16.671,28.83,41.30,999.94,0.000000,0.000000,0.00,0,0,0.9932,-0.2979,-0.1611,-0.5115,-0.6718,-1.8092,1.049
16.677,28.83,41.30,999.94,0.000000,0.000000,0.00,0,0,1.0042,-0.3140,-0.1611,-0.6412,-0.0152,-1.2672,1.064
16.683,28.83,41.30,999.94,0.000000,0.000000,0.00,0,0,1.0076,-0.3147,-0.1592,-0.7481,0.6641,-0.7252,1.068
16.689,28.83,41.30,999.94,0.000000,0.000000,0.00,0,0,1.0061,-0.3169,-0.1567,-0.6260,1.2061,-0.1832,1.066
16.695,28.83,41.30,999.94,0.000000,0.000000,0.00,0,0,1.0076,-0.3132,-0.1521,-0.3969,1.4962,0.5725,1.066
16.874,28.84,41.30,999.93,0.000000,0.000000,0.00,0,0,0.9546,-0.3379,-0.0876,4.2672,5.2519,0.9237,1.016
16.880,28.84,41.30,999.93,0.000000,0.000000,0.00,0,0,0.9580,-0.3411,-0.0871,3.6489,5.0229,0.7481,1.021
16.886,28.84,41.30,999.93,0.000000,0.000000,0.00,0,0,0.9551,-0.3428,-0.0817,3.1221,4.6565,0.6794,1.018
16.892,28.84,41.30,999.93,0.000000,0.000000,0.00,0,0,0.9500,-0.3367,-0.0773,2.4809,4.1450,0.3282,1.011
16.898,28.84,41.30,999.93,0.000000,0.000000,0.00,0,0,0.9502,-0.3313,-0.0864,2.0458,4.1832,0.3817,1.010
16.904,28.84,41.30,999.93,0.000000,0.000000,0.00,0,0,0.9514,-0.3337,-0.0888,1.6412,3.8702,0.2366,1.012
16.910,28.84,41.30,999.93,0.000000,0.000000,0.00,0,0,0.9551,-0.3354,-0.0952,1.4122,3.2901,0.2290,1.017
16.916,28.84,41.30,999.93,0.000000,0.000000,0.00,0,0,0.9595,-0.3367,-0.0939,1.0000,2.5420,-0.1298,1.021
16.922,28.84,41.30,999.93,0.000000,0.000000,0.00,0,0,0.9529,-0.3301,-0.0927,0.9008,2.4733,-0.1145,1.013
16.928,28.84,41.30,999.93,0.000000,0.000000,0.00,0,0,0.9609,-0.3318,-0.1021,0.7481,1.8015,-0.0992,1.022
17.104,28.84,41.29,999.93,0.000000,0.000000,0.00,0,0,0.9595,-0.3506,-0.1299,0.3053,0.0152,0.1298,1.030
17.110,28.84,41.29,999.93,0.000000,0.000000,0.00,0,0,0.9622,-0.3508,-0.1248,0.4504,0.4504,-0.3130,1.032
17.116,28.84,41.29,999.93,0.000000,0.000000,0.00,0,0,0.9583,-0.3447,-0.1313,0.3740,0.2977,-0.2366,1.027
17.122,28.84,41.29,999.93,0.000000,0.000000,0.00,0,0,0.9678,-0.3420,-0.1375,0.5802,0.4427,-0.1832,1.036
17.128,28.84,41.29,999.95,0.000000,0.000000,0.00,0,0,0.9587,-0.3381,-0.1416,0.3053,0.6260,-0.3435,1.026
17.134,28.84,41.27,999.95,0.000000,0.000000,0.00,0,0,0.9666,-0.3386,-0.1489,0.3282,0.7252,-0.3282,1.035
17.140,28.84,41.27,999.95,0.000000,0.000000,0.00,0,0,0.9590,-0.3491,-0.1467,0.4427,1.1450,-0.2748,1.031
17.146,28.84,41.27,999.95,0.000000,0.000000,0.00,0,0,0.9653,-0.3450,-0.1499,0.4962,1.3817,-0.2290,1.036
17.152,28.84,41.27,999.95,0.000000,0.000000,0.00,0,0,0.9658,-0.3391,-0.1497,0.5344,1.6718,-0.5267,1.035
17.158,28.84,41.27,999.95,0.000000,0.000000,0.00,0,0,0.9675,-0.3445,-0.1563,0.7023,2.1145,-0.6031,1.039
17.314,28.81,41.28,999.91,0.000000,0.000000,0.00,0,0,0.9583,-0.3318,-0.1218,4.5878,6.0382,1.2901,1.021
17.320,28.81,41.28,999.91,0.000000,0.000000,0.00,0,0,0.9548,-0.3384,-0.1245,4.8015,5.9008,1.1145,1.021
17.326,28.84,41.31,999.94,0.000000,0.000000,0.00,0,0,0.9629,-0.3428,-0.1243,4.6870,5.6107,1.1298,1.030
17.332,28.84,41.31,999.94,0.000000,0.000000,0.00,0,0,0.9634,-0.3459,-0.1138,4.8473,5.7939,1.3511,1.030
17.338,28.84,41.31,999.94,0.000000,0.000000,0.00,0,0,0.9504,-0.3479,-0.1047,3.3435,5.4046,-1.3359,1.018
17.414,28.84,41.31,999.94,0.000000,0.000000,0.00,0,0,0.9578,-0.3391,-0.0979,3.1069,5.1985,-1.3511,1.021
17.420,28.84,41.27,999.93,0.000000,0.000000,0.00,0,0,0.9573,-0.3257,-0.0939,2.5344,3.3588,1.6718,1.016
17.495,28.84,41.27,999.93,0.000000,0.000000,0.00,0,0,0.9590,-0.3267,-0.0908,2.6794,3.3206,1.3740,1.017
17.501,28.84,41.27,999.93,0.000000,0.000000,0.00,0,0,0.9570,-0.3369,-0.0998,2.4809,3.1069,1.6031,1.020
17.507,28.84,41.27,999.93,0.000000,0.000000,0.00,0,0,0.9548,-0.3511,-0.0883,2.7176,2.8473,1.7176,1.021
17.649,28.85,41.28,999.95,0.000000,0.000000,0.00,0,0,0.9563,-0.3372,-0.0908,1.0229,0.4122,-0.5496,1.018
17.723,28.84,41.28,999.95,0.000000,0.000000,0.00,0,0,0.9609,-0.3359,-0.0971,0.9466,0.2443,-0.5420,1.023
17.729,28.84,41.28,999.95,0.000000,0.000000,0.00,0,0,0.9553,-0.3337,-0.0947,1.2748,-0.0458,-0.4046,1.016
17.735,28.84,41.28,999.95,0.000000,0.000000,0.00,0,0,0.9614,-0.3364,-0.0939,0.9237,0.1069,-0.6870,1.023
17.741,28.84,41.28,999.95,0.000000,0.000000,0.00,0,0,0.9573,-0.3340,-0.1057,0.7481,-0.0534,-0.4504,1.019
17.747,28.84,41.28,999.95,0.000000,0.000000,0.00,0,0,0.9673,-0.3308,-0.1086,0.8321,0.2290,-0.5115,1.028
17.753,28.84,41.28,999.95,0.000000,0.000000,0.00,0,0,0.9685,-0.3318,-0.1035,0.9008,0.0534,-0.2366,1.029
17.759,28.84,41.28,999.95,0.000000,0.000000,0.00,0,0,0.9670,-0.3262,-0.1042,0.8015,0.0916,-0.3130,1.026
17.765,28.84,41.28,999.95,0.000000,0.000000,0.00,0,0,0.9624,-0.3313,-0.1050,0.9924,0.0534,-0.1985,1.023
17.771,28.84,41.28,999.95,0.000000,0.000000,0.00,0,0,0.9636,-0.3359,-0.1028,0.6260,0.1069,0.1298,1.026
17.934,28.84,41.28,999.94,0.000000,0.000000,0.00,0,0,0.9573,-0.3438,-0.1221,2.1908,2.5802,0.7863,1.024
17.940,28.84,41.28,999.94,0.000000,0.000000,0.00,0,0,0.9590,-0.3425,-0.1057,2.4809,2.7557,0.6336,1.024
17.946,28.84,41.28,999.94,0.000000,0.000000,0.00,0,0,0.9570,-0.3481,-0.1111,2.5496,2.8397,0.4733,1.024
17.952,28.84,41.28,999.94,0.000000,0.000000,0.00,0,0,0.9578,-0.3447,-0.1099,2.5649,2.5573,0.3053,1.024
17.958,28.84,41.28,999.94,0.000000,0.000000,0.00,0,0,0.9600,-0.3494,-0.1155,2.5573,2.7710,0.0992,1.028
17.964,28.84,41.28,999.94,0.000000,0.000000,0.00,0,0,0.9553,-0.3516,-0.1079,2.7023,2.8321,0.1603,1.024
17.970,28.84,41.28,999.94,0.000000,0.000000,0.00,0,0,0.9539,-0.3535,-0.1128,2.5038,2.7939,-0.0763,1.023
17.976,28.84,41.28,999.94,0.000000,0.000000,0.00,0,0,0.9597,-0.3464,-0.1096,2.5267,2.9313,-0.2137,1.026
17.982,28.84,41.28,999.94,0.000000,0.000000,0.00,0,0,0.9624,-0.3508,-0.1094,2.8015,2.9695,-0.2977,1.030
17.988,28.84,41.28,999.94,0.000000,0.000000,0.00,0,0,0.9585,-0.3494,-0.0993,3.0916,2.9237,-0.5649,1.025
18.235,28.85,41.28,999.93,0.000000,0.000000,0.00,0,0,0.9631,-0.3389,-0.1008,1.6336,1.9160,0.4809,1.026
18.241,28.85,41.28,999.93,0.000000,0.000000,0.00,0,0,0.9568,-0.3477,-0.1021,1.7099,1.5191,0.4504,1.023
18.247,28.85,41.28,999.93,0.000000,0.000000,0.00,0,0,0.9561,-0.3467,-0.1055,1.7252,1.9847,0.1603,1.022
18.253,28.85,41.28,999.93,0.000000,0.000000,0.00,0,0,0.9607,-0.3462,-0.1111,1.9237,1.9084,0.0458,1.027
18.259,28.85,41.28,999.93,0.000000,0.000000,0.00,0,0,0.9580,-0.3459,-0.1011,1.7710,1.8702,0.1069,1.024
18.265,28.85,41.28,999.93,0.000000,0.000000,0.00,0,0,0.9575,-0.3423,-0.1060,1.6794,2.1374,-0.2214,1.022
18.271,28.85,41.28,999.93,0.000000,0.000000,0.00,0,0,0.9583,-0.3420,-0.1099,1.7557,1.9389,-0.1985,1.023
18.277,28.85,41.28,999.93,0.000000,0.000000,0.00,0,0,0.9590,-0.3425,-0.1040,1.8550,1.8855,-0.2443,1.024
18.283,28.85,41.28,999.93,0.000000,0.000000,0.00,0,0,0.9539,-0.3484,-0.1042,1.7939,1.9313,-0.1450,1.021
18.289,28.85,41.28,999.93,0.000000,0.000000,0.00,0,0,0.9541,-0.3416,-0.1025,1.7634,2.0687,-0.3130,1.019
18.406,28.85,41.28,999.95,0.000000,0.000000,0.00,0,0,0.9558,-0.3398,-0.0983,2.1527,2.7023,-0.2672,1.019
18.413,28.85,41.28,999.95,0.000000,0.000000,0.00,0,0,0.9546,-0.3354,-0.1050,1.8931,2.6641,0.2519,1.017
18.419,28.85,41.28,999.95,0.000000,0.000000,0.00,0,0,0.9573,-0.3359,-0.1008,1.9847,2.5115,-0.0305,1.020
18.425,28.85,41.28,999.95,0.000000,0.000000,0.00,0,0,0.9590,-0.3401,-0.1047,1.9008,2.5344,0.1679,1.023
18.431,28.85,41.28,999.95,0.000000,0.000000,0.00,0,0,0.9639,-0.3384,-0.1028,2.0840,2.6107,0.0839,1.027
18.437,28.85,41.28,999.90,0.000000,0.000000,0.00,0,0,0.9592,-0.3389,-0.0927,2.1756,2.1908,-0.0610,1.022
18.512,28.82,41.28,999.90,0.000000,0.000000,0.00,0,0,0.9492,-0.3423,-0.0971,2.3511,2.2443,0.2443,1.014
18.518,28.82,41.28,999.90,0.000000,0.000000,0.00,0,0,0.9622,-0.3464,-0.0954,2.4198,2.3435,-0.0305,1.027
18.524,28.82,41.28,999.90,0.000000,0.000000,0.00,0,0,0.9521,-0.3398,-0.0974,2.5267,2.2061,-0.0534,1.016
18.530,28.82,41.28,999.90,0.000000,0.000000,0.00,0,0,0.9626,-0.3379,-0.0937,2.2748,2.0382,-0.1603,1.025
18.746,28.85,41.28,999.94,0.000000,0.000000,0.00,0,0,0.9636,-0.3337,-0.1050,1.9847,2.4962,0.2519,1.025
18.752,28.85,41.28,999.94,0.000000,0.000000,0.00,0,0,0.9570,-0.3440,-0.1003,2.3282,2.2672,0.0839,1.022
18.758,28.85,41.28,999.94,0.000000,0.000000,0.00,0,0,0.9604,-0.3450,-0.0991,2.2672,2.6947,0.2748,1.025
18.764,28.85,41.28,999.94,0.000000,0.000000,0.00,0,0,0.9583,-0.3484,-0.0939,2.3817,2.3969,-0.0458,1.024
18.770,28.85,41.28,999.94,0.000000,0.000000,0.00,0,0,0.9504,-0.3450,-0.0993,2.3588,2.4504,0.0381,1.016
18.776,28.85,41.28,999.94,0.000000,0.000000,0.00,0,0,0.9604,-0.3484,-0.1040,2.6412,2.5038,-0.1145,1.027
18.782,28.85,41.28,999.94,0.000000,0.000000,0.00,0,0,0.9600,-0.3428,-0.0991,2.3740,2.4504,-0.2519,1.024
18.788,28.85,41.28,999.94,0.000000,0.000000,0.00,0,0,0.9541,-0.3457,-0.0918,2.5420,2.5496,-0.1985,1.019
18.794,28.85,41.21,999.91,0.000000,0.000000,0.00,0,0,0.9600,-0.3372,-0.0913,2.7099,2.3969,-0.1069,1.022
18.800,28.85,41.21,999.91,0.000000,0.000000,0.00,0,0,0.9614,-0.3274,-0.0881,1.7405,2.1756,-0.0839,1.019
19.136,28.85,41.27,999.96,0.000000,0.000000,0.00,0,0,0.9629,-0.3342,-0.0910,1.8855,1.4733,0.2290,1.023
19.142,28.85,41.27,999.96,0.000000,0.000000,0.00,0,0,0.9561,-0.3408,-0.0896,1.9542,1.6489,0.3130,1.019
19.148,28.85,41.27,999.96,0.000000,0.000000,0.00,0,0,0.9617,-0.3406,-0.0932,1.9771,1.9618,0.1069,1.024
19.154,28.85,41.27,999.96,0.000000,0.000000,0.00,0,0,0.9651,-0.3398,-0.1033,2.2748,2.0076,0.0381,1.028
19.160,28.85,41.27,999.96,0.000000,0.000000,0.00,0,0,0.9580,-0.3455,-0.1003,2.1298,1.8855,0.0992,1.023
19.166,28.85,41.27,999.96,0.000000,0.000000,0.00,0,0,0.9617,-0.3464,-0.0944,2.3893,2.3817,-0.0152,1.027
19.172,28.85,41.27,999.96,0.000000,0.000000,0.00,0,0,0.9517,-0.3447,-0.0910,2.3969,2.6183,-0.1069,1.016
19.178,28.85,41.27,999.96,0.000000,0.000000,0.00,0,0,0.9619,-0.3462,-0.0900,2.6336,2.4733,-0.1221,1.026
19.184,28.85,41.27,999.95,0.000000,0.000000,0.00,0,0,0.9617,-0.3418,-0.1011,2.6489,2.5878,-0.2519,1.026
19.190,28.85,41.26,999.95,0.000000,0.000000,0.00,0,0,0.9609,-0.3425,-0.0961,2.5038,2.5878,-0.3740,1.025
19.322,28.85,41.27,999.93,0.000000,0.000000,0.00,0,0,0.9563,-0.3384,-0.0893,2.3664,2.6412,0.0839,1.018
19.328,28.85,41.27,999.93,0.000000,0.000000,0.00,0,0,0.9612,-0.3425,-0.0888,2.3053,2.8473,0.0839,1.024
19.334,28.85,41.27,999.93,0.000000,0.000000,0.00,0,0,0.9531,-0.3398,-0.0876,2.1374,2.8015,0.0076,1.016
19.339,28.85,41.27,999.92,0.000000,0.000000,0.00,0,0,0.9587,-0.3376,-0.0844,2.1145,2.1069,-0.5191,1.020
19.413,28.85,41.27,999.92,0.000000,0.000000,0.00,0,0,0.9631,-0.3401,-0.0903,2.4046,2.1145,-0.8397,1.025
19.419,28.85,41.27,999.92,0.000000,0.000000,0.00,0,0,0.9590,-0.3301,-0.0839,1.9237,2.0763,-0.8321,1.018
19.425,28.85,41.27,999.92,0.000000,0.000000,0.00,0,0,0.9587,-0.3374,-0.0869,2.0458,1.9618,-0.4733,1.020
19.431,28.85,41.27,999.94,0.000000,0.000000,0.00,0,0,0.9607,-0.3381,-0.0913,1.8244,1.4427,-0.1832,1.023
19.506,28.84,41.27,999.94,0.000000,0.000000,0.00,0,0,0.9661,-0.3376,-0.0842,1.8702,1.3282,-0.1450,1.027
19.512,28.84,41.27,999.94,0.000000,0.000000,0.00,0,0,0.9583,-0.3357,-0.0847,2.0229,1.1756,-0.1145,1.019
19.728,28.85,41.27,999.95,0.000000,0.000000,0.00,0,0,0.9619,-0.3374,-0.0869,2.1679,2.8855,-0.0916,1.023
19.734,28.85,41.27,999.95,0.000000,0.000000,0.00,0,0,0.9617,-0.3289,-0.0781,2.1832,2.9466,-0.0381,1.019
19.740,28.85,41.27,999.95,0.000000,0.000000,0.00,0,0,0.9607,-0.3325,-0.0817,2.1832,3.0687,-0.0305,1.020
19.746,28.85,41.27,999.95,0.000000,0.000000,0.00,0,0,0.9629,-0.3337,-0.0839,2.1221,2.7863,0.0763,1.023
19.752,28.85,41.27,999.95,0.000000,0.000000,0.00,0,0,0.9636,-0.3330,-0.0876,2.0382,2.9924,-0.1069,1.023
19.758,28.85,41.27,999.95,0.000000,0.000000,0.00,0,0,0.9619,-0.3330,-0.0786,2.2672,2.9313,-0.0381,1.021
19.764,28.85,41.27,999.95,0.000000,0.000000,0.00,0,0,0.9636,-0.3281,-0.0795,2.2595,2.7252,0.0000,1.021
19.770,28.85,41.27,999.95,0.000000,0.000000,0.00,0,0,0.9556,-0.3362,-0.0817,2.2519,2.9237,0.1069,1.016
19.776,28.86,41.26,999.95,0.000000,0.000000,0.00,0,0,0.9587,-0.3364,-0.0759,2.5649,3.0611,-0.0076,1.019
19.782,28.86,41.26,999.95,0.000000,0.000000,0.00,0,0,0.9553,-0.3413,-0.0861,2.3969,2.8244,0.1069,1.018
19.946,28.85,41.27,999.94,0.000000,0.000000,0.00,0,0,0.9548,-0.3298,-0.0778,1.2901,1.7786,0.2977,1.013
19.952,28.85,41.27,999.94,0.000000,0.000000,0.00,0,0,0.9519,-0.3330,-0.0805,1.1298,1.4580,0.1221,1.012
19.958,28.85,41.27,999.94,0.000000,0.000000,0.00,0,0,0.9546,-0.3335,-0.0783,1.1527,1.5802,-0.0229,1.014
19.964,28.85,41.27,999.94,0.000000,0.000000,0.00,0,0,0.9595,-0.3389,-0.0795,0.9847,1.4885,-0.0381,1.021
19.970,28.86,41.31,999.96,0.000000,0.000000,0.00,0,0,0.9526,-0.3303,-0.0791,0.9008,1.7863,-0.1832,1.011
19.976,28.86,41.31,999.96,0.000000,0.000000,0.00,0,0,0.9626,-0.3325,-0.0835,0.8397,1.7328,0.0229,1.022
19.982,28.86,41.31,999.96,0.000000,0.000000,0.00,0,0,0.9663,-0.3328,-0.0908,1.0458,1.6565,0.0229,1.026
19.988,28.86,41.31,999.96,0.000000,0.000000,0.00,0,0,0.9646,-0.3354,-0.0925,1.1908,1.8321,-0.0687,1.025
19.994,28.86,41.31,999.96,0.000000,0.000000,0.00,0,0,0.9692,-0.3293,-0.0861,1.2748,1.7481,0.2290,1.027
20.000,28.86,41.27,999.91,0.000000,0.000000,0.00,0,0,0.9604,-0.3394,-0.0866,2.9084,2.4504,-0.5115,1.022
20.220,28.85,41.27,999.95,0.000000,0.000000,0.00,0,0,0.9595,-0.3247,-0.0620,2.3588,2.5878,-0.1603,1.015
20.226,28.85,41.27,999.95,0.000000,0.000000,0.00,0,0,0.9565,-0.3359,-0.0668,1.6947,2.8244,-0.6031,1.016
20.232,28.85,41.27,999.95,0.000000,0.000000,0.00,0,0,0.9590,-0.3328,-0.0700,1.4733,2.7023,-0.1450,1.017
20.238,28.85,41.27,999.95,0.000000,0.000000,0.00,0,0,0.9575,-0.3311,-0.0739,0.9771,2.9771,-0.5725,1.016
20.244,28.85,41.27,999.95,0.000000,0.000000,0.00,0,0,0.9644,-0.3325,-0.0773,1.0153,2.9160,-0.3282,1.023
20.250,28.85,41.27,999.95,0.000000,0.000000,0.00,0,0,0.9604,-0.3340,-0.0773,1.0611,2.7557,-0.1985,1.020
20.256,28.85,41.27,999.95,0.000000,0.000000,0.00,0,0,0.9583,-0.3350,-0.0810,1.3206,3.1069,-0.1832,1.018
20.262,28.85,41.20,999.95,0.000000,0.000000,0.00,0,0,0.9570,-0.3328,-0.0817,1.4580,2.9542,-0.2748,1.017
20.268,28.86,41.20,999.95,0.000000,0.000000,0.00,0,0,0.9561,-0.3367,-0.0915,1.7099,2.8855,-0.2366,1.018
20.274,28.86,41.20,999.95,0.000000,0.000000,0.00,0,0,0.9634,-0.3289,-0.0620,2.6183,3.1603,-0.9008,1.020
20.453,28.86,41.26,999.93,0.000000,0.000000,0.00,0,0,0.9551,-0.3279,-0.0603,1.7939,2.5649,-0.1069,1.012
20.459,28.86,41.25,999.97,0.000000,0.000000,0.00,0,0,0.9624,-0.3267,-0.0651,1.7023,2.4198,0.1832,1.018
20.465,28.86,41.25,999.97,0.000000,0.000000,0.00,0,0,0.9546,-0.3269,-0.0629,1.7634,2.4122,0.0916,1.011
20.471,28.86,41.25,999.97,0.000000,0.000000,0.00,0,0,0.9556,-0.3315,-0.0551,1.8397,2.2672,0.0610,1.013
20.477,28.86,41.25,999.97,0.000000,0.000000,0.00,0,0,0.9521,-0.3286,-0.0600,1.5420,1.9389,0.0534,1.009
20.483,28.86,41.25,999.97,0.000000,0.000000,0.00,0,0,0.9539,-0.3352,-0.0539,1.5420,1.8855,0.1527,1.012
20.489,28.86,41.25,999.97,0.000000,0.000000,0.00,0,0,0.9585,-0.3301,-0.0529,1.5954,1.7099,0.0687,1.015
20.495,28.86,41.25,999.97,0.000000,0.000000,0.00,0,0,0.9561,-0.3301,-0.0590,1.5649,1.4504,-0.1145,1.013
20.501,28.83,41.26,999.87,0.000000,0.000000,0.00,0,0,0.9666,-0.3298,-0.0727,0.9313,1.1450,0.1145,1.024
20.575,28.83,41.26,999.87,0.000000,0.000000,0.00,0,0,0.9563,-0.3381,-0.0749,2.1679,1.9695,0.0305,1.017
20.800,28.87,41.27,999.96,0.000000,0.000000,0.00,0,0,0.9570,-0.3254,-0.0610,1.0000,1.2214,-0.2137,1.013
20.875,28.86,41.27,999.96,0.000000,0.000000,0.00,0,0,0.9673,-0.3284,-0.0551,1.1679,1.2672,-0.4275,1.023
20.881,28.85,41.26,999.95,0.000000,0.000000,0.00,0,0,0.9575,-0.3384,-0.0720,2.0458,2.2824,-0.2519,1.018
21.024,28.85,41.26,999.95,0.000000,0.000000,0.00,0,0,0.9641,-0.3391,-0.0732,2.1603,2.2290,-0.1527,1.025
21.030,28.85,41.26,999.95,0.000000,0.000000,0.00,0,0,0.9685,-0.3245,-0.0712,2.0611,2.2366,-0.2214,1.024
21.036,28.85,41.26,999.95,0.000000,0.000000,0.00,0,0,0.9631,-0.3274,-0.0659,2.3511,2.4351,-0.4504,1.019
21.042,28.85,41.26,999.95,0.000000,0.000000,0.00,0,0,0.9661,-0.3284,-0.0661,2.2519,2.2061,-0.4809,1.022
21.048,28.86,41.18,999.99,0.000000,0.000000,0.00,0,0,0.9651,-0.3291,-0.0712,2.0992,2.1985,-0.1756,1.022
21.054,28.86,41.18,999.99,0.000000,0.000000,0.00,0,0,0.9678,-0.3220,-0.0605,1.8168,2.0305,-0.1145,1.022
21.060,28.86,41.18,999.99,0.000000,0.000000,0.00,0,0,0.9656,-0.3257,-0.0620,1.8931,1.9160,-0.2443,1.021
21.324,28.86,41.26,999.96,0.000000,0.000000,0.00,0,0,0.9600,-0.3352,-0.0659,1.6718,1.0840,0.1908,1.019
21.330,28.86,41.26,999.96,0.000000,0.000000,0.00,0,0,0.9629,-0.3323,-0.0747,1.9466,1.1985,-0.2290,1.021
21.336,28.86,41.26,999.96,0.000000,0.000000,0.00,0,0,0.9695,-0.3293,-0.0752,1.9008,1.4122,0.0229,1.027
21.342,28.87,41.26,999.96,0.000000,0.000000,0.00,0,0,0.9526,-0.3394,-0.0693,2.6565,1.9618,-0.0229,1.014
21.417,28.87,41.26,999.96,0.000000,0.000000,0.00,0,0,0.9546,-0.3342,-0.0698,2.7710,2.1985,-0.0992,1.014
21.423,28.87,41.26,999.96,0.000000,0.000000,0.00,0,0,0.9553,-0.3342,-0.0715,2.5115,2.2519,-0.5038,1.015
21.429,28.87,41.26,999.96,0.000000,0.000000,0.00,0,0,0.9624,-0.3328,-0.0722,2.2290,2.2977,-0.4656,1.021
21.435,28.87,41.26,999.96,0.000000,0.000000,0.00,0,0,0.9634,-0.3286,-0.0595,2.0305,2.2137,-0.3435,1.020
21.441,28.86,41.23,999.95,0.000000,0.000000,0.00,0,0,0.9646,-0.3252,-0.0739,1.8855,2.2061,-0.5725,1.021
21.448,28.86,41.23,999.95,0.000000,0.000000,0.00,0,0,0.9670,-0.3218,-0.0727,1.7710,2.2366,-0.4733,1.022
21.540,28.85,41.26,999.95,0.000000,0.000000,0.00,0,0,0.9644,-0.3406,-0.0625,1.9924,1.8321,-0.1756,1.025
21.546,28.85,41.26,999.95,0.000000,0.000000,0.00,0,0,0.9568,-0.3296,-0.0578,1.9542,1.7710,-0.5496,1.014
21.552,28.85,41.26,999.95,0.000000,0.000000,0.00,0,0,0.9641,-0.3362,-0.0598,1.9542,1.3740,-0.4580,1.023
21.558,28.85,41.26,999.95,0.000000,0.000000,0.00,0,0,0.9558,-0.3276,-0.0693,1.7481,1.3817,-0.5267,1.013
21.564,28.85,41.26,999.95,0.000000,0.000000,0.00,0,0,0.9553,-0.3252,-0.0595,1.7252,1.5420,-0.6718,1.011
21.570,28.85,41.26,999.95,0.000000,0.000000,0.00,0,0,0.9653,-0.3240,-0.0625,1.3206,1.6107,-0.7634,1.020
21.576,28.85,41.26,999.95,0.000000,0.000000,0.00,0,0,0.9597,-0.3240,-0.0578,1.5420,1.5725,-0.4733,1.015
21.582,28.85,41.26,999.95,0.000000,0.000000,0.00,0,0,0.9678,-0.3250,-0.0644,1.2290,1.5496,-0.5267,1.023
21.588,28.85,41.26,999.95,0.000000,0.000000,0.00,0,0,0.9609,-0.3264,-0.0671,1.2290,1.5038,-0.4656,1.017
21.594,28.85,41.26,999.95,0.000000,0.000000,0.00,0,0,0.9597,-0.3245,-0.0625,1.3740,1.5725,-0.4504,1.015
21.765,28.87,41.26,999.96,0.000000,0.000000,0.00,0,0,0.9636,-0.3340,-0.0749,1.4504,1.4427,-0.0305,1.023
21.771,28.87,41.26,999.96,0.000000,0.000000,0.00,0,0,0.9602,-0.3357,-0.0683,1.4046,1.4427,-0.0458,1.019
21.777,28.87,41.26,999.96,0.000000,0.000000,0.00,0,0,0.9690,-0.3350,-0.0730,1.6336,1.5267,-0.3206,1.028
21.783,28.87,41.26,999.96,0.000000,0.000000,0.00,0,0,0.9622,-0.3315,-0.0759,1.5725,1.5878,-0.5038,1.021
21.789,28.87,41.26,999.96,0.000000,0.000000,0.00,0,0,0.9661,-0.3333,-0.0671,1.6565,1.5038,-0.2366,1.024
21.795,28.87,41.26,999.96,0.000000,0.000000,0.00,0,0,0.9612,-0.3296,-0.0681,1.9313,1.5725,-0.2672,1.018
21.801,28.87,41.26,999.96,0.000000,0.000000,0.00,0,0,0.9651,-0.3354,-0.0676,1.7176,1.6107,-0.1069,1.024
21.807,28.87,41.26,999.96,0.000000,0.000000,0.00,0,0,0.9663,-0.3328,-0.0632,1.8702,1.5420,-0.3435,1.024
21.813,28.87,41.26,999.96,0.000000,0.000000,0.00,0,0,0.9688,-0.3237,-0.0678,2.0840,1.8092,-0.4275,1.024
21.819,28.87,41.26,999.96,0.000000,0.000000,0.00,0,0,0.9712,-0.3301,-0.0671,2.2061,1.3969,-0.2977,1.028
21.932,28.88,41.26,999.95,0.000000,0.000000,0.00,0,0,0.9675,-0.3274,-0.0749,1.7634,1.5115,0.0000,1.024
21.938,28.88,41.26,999.95,0.000000,0.000000,0.00,0,0,0.9651,-0.3259,-0.0712,1.8092,1.4198,0.1450,1.021
21.944,28.88,41.26,999.95,0.000000,0.000000,0.00,0,0,0.9685,-0.3271,-0.0654,1.8550,1.3817,0.0687,1.024
21.950,28.88,41.26,999.95,0.000000,0.000000,0.00,0,0,0.9631,-0.3274,-0.0678,1.7481,1.5038,-0.1221,1.020
21.956,28.88,41.26,999.95,0.000000,0.000000,0.00,0,0,0.9602,-0.3293,-0.0642,1.7099,1.4351,-0.0916,1.017
21.962,28.88,41.26,999.95,0.000000,0.000000,0.00,0,0,0.9619,-0.3362,-0.0717,1.7252,1.3969,-0.2061,1.021
21.968,28.88,41.26,999.95,0.000000,0.000000,0.00,0,0,0.9626,-0.3252,-0.0659,1.3435,0.9542,0.0458,1.018
22.043,28.85,41.25,999.90,0.000000,0.000000,0.00,0,0,0.9595,-0.3228,-0.0668,1.3435,0.9160,0.0992,1.015
22.049,28.85,41.25,999.90,0.000000,0.000000,0.00,0,0,0.9624,-0.3230,-0.0683,1.1374,0.8168,0.1527,1.017
22.055,28.85,41.25,999.90,0.000000,0.000000,0.00,0,0,0.9648,-0.3203,-0.0695,1.2137,0.9008,0.1221,1.019
22.214,28.86,41.25,999.90,0.000000,0.000000,0.00,0,0,0.9590,-0.3218,-0.0781,0.7634,1.0687,-0.2672,1.015
22.221,28.86,41.26,999.96,0.000000,0.000000,0.00,0,0,0.9639,-0.3257,-0.0698,0.7252,1.3130,-0.3053,1.020
22.226,28.87,41.26,999.96,0.000000,0.000000,0.00,0,0,0.9639,-0.3191,-0.0764,0.7863,1.1527,-0.1221,1.018
22.232,28.87,41.26,999.96,0.000000,0.000000,0.00,0,0,0.9731,-0.3228,-0.0791,0.7023,1.3206,-0.1069,1.028
22.239,28.87,41.26,999.96,0.000000,0.000000,0.00,0,0,0.9739,-0.3245,-0.0791,0.6718,1.3740,-0.0458,1.030
22.245,28.87,41.26,999.96,0.000000,0.000000,0.00,0,0,0.9727,-0.3254,-0.0825,0.9237,1.3817,0.0000,1.029
22.251,28.87,41.25,999.90,0.000000,0.000000,0.00,0,0,0.9661,-0.3247,-0.0800,2.0153,1.7786,-0.3282,1.022
22.394,28.85,41.25,999.90,0.000000,0.000000,0.00,0,0,0.9688,-0.3225,-0.0734,1.8321,2.0458,-0.1221,1.024
22.400,28.85,41.25,999.90,0.000000,0.000000,0.00,0,0,0.9651,-0.3218,-0.0693,1.9237,1.9084,-0.1756,1.020
22.406,28.85,41.24,999.97,0.000000,0.000000,0.00,0,0,0.9622,-0.3274,-0.0705,1.5802,1.6718,-0.2443,1.019
22.571,28.88,41.25,999.97,0.000000,0.000000,0.00,0,0,0.9656,-0.3232,-0.0637,1.5496,1.1985,-0.0458,1.020
22.577,28.88,41.25,999.97,0.000000,0.000000,0.00,0,0,0.9648,-0.3252,-0.0656,1.7710,1.1374,0.0839,1.020
22.583,28.88,41.25,999.97,0.000000,0.000000,0.00,0,0,0.9631,-0.3286,-0.0734,1.4656,1.4962,0.1450,1.020
22.589,28.88,41.25,999.97,0.000000,0.000000,0.00,0,0,0.9653,-0.3269,-0.0715,1.3511,1.1450,0.1985,1.022
22.595,28.88,41.25,999.97,0.000000,0.000000,0.00,0,0,0.9622,-0.3274,-0.0661,1.5191,1.2214,0.1450,1.018
22.601,28.88,41.25,999.97,0.000000,0.000000,0.00,0,0,0.9590,-0.3271,-0.0715,1.3206,1.0687,0.1450,1.016
22.607,28.88,41.25,999.97,0.000000,0.000000,0.00,0,0,0.9563,-0.3274,-0.0678,1.0534,1.3282,0.0076,1.013
22.613,28.88,41.22,999.94,0.000000,0.000000,0.00,0,0,0.9565,-0.3301,-0.0759,1.0992,1.1756,-0.0610,1.015
22.619,28.88,41.22,999.94,0.000000,0.000000,0.00,0,0,0.9622,-0.3267,-0.0710,1.1374,1.2901,-0.0381,1.019
22.625,28.88,41.22,999.94,0.000000,0.000000,0.00,0,0,0.9580,-0.3215,-0.0769,1.1221,1.2366,0.1374,1.013
22.726,28.86,41.25,999.93,0.000000,0.000000,0.00,0,0,0.9609,-0.3274,-0.0712,1.6031,1.3664,-0.1145,1.018
22.732,28.86,41.25,999.93,0.000000,0.000000,0.00,0,0,0.9629,-0.3254,-0.0693,1.7710,1.4962,0.1374,1.019
22.738,28.86,41.25,999.93,0.000000,0.000000,0.00,0,0,0.9629,-0.3267,-0.0690,1.6031,1.2977,0.0076,1.019
22.744,28.86,41.25,999.90,0.000000,0.000000,0.00,0,0,0.9604,-0.3262,-0.0739,1.8015,1.2443,-0.1374,1.017
22.818,28.86,41.25,999.90,0.000000,0.000000,0.00,0,0,0.9668,-0.3264,-0.0752,1.6565,1.3206,0.2824,1.023
22.824,28.86,41.25,999.90,0.000000,0.000000,0.00,0,0,0.9651,-0.3264,-0.0686,1.3740,1.1832,0.0152,1.021
22.830,28.86,41.25,999.90,0.000000,0.000000,0.00,0,0,0.9670,-0.3296,-0.0625,1.1145,1.4275,0.1374,1.024
22.836,28.86,41.25,999.90,0.000000,0.000000,0.00,0,0,0.9634,-0.3198,-0.0644,0.6107,1.3893,-0.1450,1.017
22.842,28.86,41.25,999.90,0.000000,0.000000,0.00,0,0,0.9648,-0.3201,-0.0722,0.2214,1.3511,-0.0229,1.019
22.848,28.86,41.25,999.90,0.000000,0.000000,0.00,0,0,0.9619,-0.3318,-0.0766,0.1908,1.0534,-0.1756,1.020
22.940,28.84,41.26,999.96,0.000000,0.000000,0.00,0,0,0.9653,-0.3259,-0.0822,0.7863,0.3435,-0.1298,1.022
23.015,28.88,41.26,999.96,0.000000,0.000000,0.00,0,0,0.9675,-0.3301,-0.0847,1.0687,0.4122,-0.1985,1.026
23.021,28.88,41.26,999.96,0.000000,0.000000,0.00,0,0,0.9668,-0.3269,-0.0837,1.2977,0.4809,-0.1603,1.024
23.027,28.88,41.26,999.96,0.000000,0.000000,0.00,0,0,0.9651,-0.3335,-0.0798,1.4351,0.4962,-0.1603,1.024
23.033,28.88,41.26,999.96,0.000000,0.000000,0.00,0,0,0.9636,-0.3289,-0.0849,1.3435,0.2672,0.2748,1.022
23.039,28.88,41.26,999.96,0.000000,0.000000,0.00,0,0,0.9624,-0.3230,-0.0815,1.5344,0.4351,0.0076,1.018
23.045,28.88,41.26,999.96,0.000000,0.000000,0.00,0,0,0.9678,-0.3323,-0.0859,1.5496,0.2595,-0.0305,1.027
23.051,28.88,41.26,999.96,0.000000,0.000000,0.00,0,0,0.9609,-0.3306,-0.0856,1.5038,0.3740,-0.2061,1.020
23.057,28.88,41.26,999.96,0.000000,0.000000,0.00,0,0,0.9663,-0.3340,-0.0752,1.8321,0.4122,-0.0152,1.025
23.063,28.85,41.26,999.92,0.000000,0.000000,0.00,0,0,0.9607,-0.3381,-0.0644,1.4580,-1.8931,-2.8550,1.021
23.252,28.88,41.25,999.97,0.000000,0.000000,0.00,0,0,0.9700,-0.3032,-0.0725,2.6718,-2.0382,-0.5496,1.019
23.258,28.88,41.25,999.97,0.000000,0.000000,0.00,0,0,0.9644,-0.3035,-0.0720,2.8855,-2.4427,-0.1145,1.014
23.264,28.88,41.25,999.97,0.000000,0.000000,0.00,0,0,0.9717,-0.3103,-0.0695,2.9618,-2.6870,0.1069,1.022
23.270,28.88,41.25,999.97,0.000000,0.000000,0.00,0,0,0.9658,-0.2935,-0.0622,3.0229,-3.3206,0.4733,1.011
23.276,28.88,41.25,999.97,0.000000,0.000000,0.00,0,0,0.9712,-0.2991,-0.0661,3.2672,-3.7252,0.8092,1.018
23.282,28.88,41.25,999.97,0.000000,0.000000,0.00,0,0,0.9629,-0.2993,-0.0730,3.9618,-4.5191,1.3206,1.011
23.288,28.88,41.25,999.97,0.000000,0.000000,0.00,0,0,0.9644,-0.2957,-0.0634,5.0000,-5.2672,1.8397,1.011
23.294,28.88,41.25,999.97,0.000000,0.000000,0.00,0,0,0.9709,-0.3025,-0.0739,6.3740,-5.9389,2.5725,1.020
23.300,28.89,41.26,999.97,0.000000,0.000000,0.00,0,0,0.9661,-0.3098,-0.0656,7.1527,-6.7328,3.0458,1.017
23.306,28.89,41.26,999.97,0.000000,0.000000,0.00,0,0,0.9617,-0.3110,-0.0695,7.3282,-7.2519,3.3664,1.013
23.444,28.87,41.25,999.98,0.000000,0.000000,0.00,0,0,0.9719,-0.3123,-0.1299,1.4198,0.6031,2.1832,1.029
23.520,28.89,41.25,1000.00,0.000000,0.000000,0.00,0,0,0.9790,-0.3149,-0.1316,1.5115,0.9160,2.3511,1.037
23.526,28.89,41.25,1000.00,0.000000,0.000000,0.00,0,0,0.9685,-0.3206,-0.1301,1.4351,1.1603,2.3053,1.028
23.532,28.89,41.25,1000.00,0.000000,0.000000,0.00,0,0,0.9641,-0.3237,-0.1338,1.2443,1.1679,2.5878,1.026
23.538,28.89,41.25,1000.00,0.000000,0.000000,0.00,0,0,0.9653,-0.3237,-0.1304,1.0916,1.4351,2.4046,1.026
23.544,28.89,41.25,1000.00,0.000000,0.000000,0.00,0,0,0.9578,-0.3328,-0.1279,1.0916,1.6794,2.3435,1.022
23.550,28.89,41.25,1000.00,0.000000,0.000000,0.00,0,0,0.9624,-0.3389,-0.1287,0.7328,1.6794,2.3130,1.028
23.556,28.89,41.25,1000.00,0.000000,0.000000,0.00,0,0,0.9634,-0.3411,-0.1169,0.8626,1.9237,1.9084,1.029
23.562,28.89,41.25,1000.00,0.000000,0.000000,0.00,0,0,0.9612,-0.3403,-0.1223,1.0305,2.0076,1.5344,1.027
23.568,28.89,41.25,1000.00,0.000000,0.000000,0.00,0,0,0.9609,-0.3447,-0.1238,0.8702,2.1221,1.3435,1.028
23.744,28.89,41.24,999.97,0.000000,0.000000,0.00,0,0,0.9661,-0.3157,-0.0947,1.2214,-0.5496,0.4427,1.021
23.750,28.89,41.24,999.97,0.000000,0.000000,0.00,0,0,0.9653,-0.3169,-0.0966,0.9466,-0.8779,0.3435,1.021
23.756,28.89,41.24,999.97,0.000000,0.000000,0.00,0,0,0.9631,-0.3215,-0.0922,0.4809,-1.0153,0.5649,1.020
23.762,28.89,41.24,999.97,0.000000,0.000000,0.00,0,0,0.9580,-0.3186,-0.0969,0.4198,-1.3588,0.5115,1.014
23.768,28.89,41.24,999.97,0.000000,0.000000,0.00,0,0,0.9568,-0.3191,-0.0988,0.1985,-1.5191,0.4809,1.013
23.774,28.89,41.24,999.97,0.000000,0.000000,0.00,0,0,0.9573,-0.3242,-0.0981,0.3435,-1.7405,0.5954,1.015
23.780,28.89,41.24,999.97,0.000000,0.000000,0.00,0,0,0.9558,-0.3176,-0.1047,0.0916,-1.7863,0.6336,1.013
23.786,28.89,41.24,999.98,0.000000,0.000000,0.00,0,0,0.9548,-0.3247,-0.1138,-0.0152,-2.0382,0.6107,1.015
23.792,28.89,41.26,999.97,0.000000,0.000000,0.00,0,0,0.9587,-0.3240,-0.1174,0.2595,-1.9084,0.5649,1.019
23.798,28.89,41.26,999.97,0.000000,0.000000,0.00,0,0,0.9570,-0.3313,-0.1143,0.2214,-2.0305,0.3511,1.019
23.838,28.89,41.26,999.95,0.000000,0.000000,0.00,0,0,0.9634,-0.3225,-0.1255,0.6565,-2.1527,0.4504,1.024
23.912,28.88,41.25,999.94,0.000000,0.000000,0.00,0,0,0.9661,-0.3340,-0.1367,0.2366,-1.9847,0.0305,1.031
23.918,28.88,41.25,999.94,0.000000,0.000000,0.00,0,0,0.9629,-0.3296,-0.1218,0.0076,-2.0992,0.1756,1.025
23.924,28.88,41.25,999.94,0.000000,0.000000,0.00,0,0,0.9661,-0.3318,-0.1372,-0.3053,-1.7405,0.1527,1.031
23.930,28.88,41.25,999.94,0.000000,0.000000,0.00,0,0,0.9595,-0.3257,-0.1340,-0.6336,-1.6489,0.0916,1.022
23.936,28.88,41.25,999.94,0.000000,0.000000,0.00,0,0,0.9646,-0.3237,-0.1296,-0.7786,-1.5496,-0.1298,1.026
23.942,28.88,41.25,999.94,0.000000,0.000000,0.00,0,0,0.9629,-0.3291,-0.1235,-0.5115,-1.2901,-0.2366,1.025
23.948,28.88,41.25,999.94,0.000000,0.000000,0.00,0,0,0.9614,-0.3232,-0.1406,-0.7557,-1.3588,-0.3206,1.024
23.954,28.88,41.25,999.94,0.000000,0.000000,0.00,0,0,0.9707,-0.3252,-0.1399,-0.6183,-1.5496,-0.2290,1.033
23.960,28.88,41.25,999.94,0.000000,0.000000,0.00,0,0,0.9675,-0.3193,-0.1445,-0.5496,-1.3435,-0.0534,1.029
24.075,28.88,41.26,999.95,0.000000,0.000000,0.00,0,0,0.9656,-0.3298,-0.1445,2.3359,1.4733,0.1832,1.031
24.081,28.88,41.24,999.97,0.000000,0.000000,0.00,0,0,0.9697,-0.3264,-0.1448,2.4122,1.7634,0.1450,1.033
24.087,28.89,41.24,999.97,0.000000,0.000000,0.00,0,0,0.9600,-0.3262,-0.1423,2.2748,2.0153,0.1145,1.024
24.093,28.89,41.24,999.97,0.000000,0.000000,0.00,0,0,0.9624,-0.3328,-0.1448,2.3969,2.0611,-0.2214,1.029
24.099,28.89,41.24,999.97,0.000000,0.000000,0.00,0,0,0.9653,-0.3284,-0.1519,2.3893,2.0000,-0.2366,1.031
24.104,28.89,41.24,999.97,0.000000,0.000000,0.00,0,0,0.9597,-0.3232,-0.1438,2.4733,2.0916,0.0763,1.023
24.110,28.89,41.24,999.97,0.000000,0.000000,0.00,0,0,0.9675,-0.3274,-0.1372,2.5267,2.5038,0.0687,1.031
24.116,28.89,41.24,999.97,0.000000,0.000000,0.00,0,0,0.9614,-0.3340,-0.1472,2.3588,2.6412,-0.2061,1.028
24.123,28.89,41.24,999.97,0.000000,0.000000,0.00,0,0,0.9670,-0.3286,-0.1428,2.3893,2.9084,0.0687,1.031
24.128,28.89,41.24,999.97,0.000000,0.000000,0.00,0,0,0.9646,-0.3264,-0.1484,2.4122,3.0000,-0.1145,1.029
24.265,28.85,41.25,999.90,0.000000,0.000000,0.00,0,0,0.9678,-0.3206,-0.1365,3.7405,2.8321,-0.1756,1.029
24.271,28.85,41.25,999.90,0.000000,0.000000,0.00,0,0,0.9683,-0.3188,-0.1348,3.9466,2.8855,-0.0763,1.028
24.277,28.85,41.22,999.99,0.000000,0.000000,0.00,0,0,0.9651,-0.3157,-0.1182,3.9466,2.7176,0.1145,1.022
24.283,28.89,41.21,999.99,0.000000,0.000000,0.00,0,0,0.9641,-0.3218,-0.1360,3.8626,2.6489,0.2672,1.025
24.289,28.89,41.21,999.99,0.000000,0.000000,0.00,0,0,0.9685,-0.3254,-0.1277,3.9771,2.6870,0.0305,1.030
24.295,28.89,41.21,999.99,0.000000,0.000000,0.00,0,0,0.9592,-0.3320,-0.1196,3.7328,3.0305,0.1298,1.022
24.301,28.89,41.21,999.99,0.000000,0.000000,0.00,0,0,0.9565,-0.3315,-0.1218,3.8092,2.7481,-0.2595,1.020
24.307,28.89,41.21,999.99,0.000000,0.000000,0.00,0,0,0.9529,-0.3433,-0.1375,3.5725,3.0229,-0.1374,1.022
24.313,28.89,41.21,999.99,0.000000,0.000000,0.00,0,0,0.9836,-0.3235,-0.1279,3.6107,3.0611,-0.0152,1.043
24.319,28.89,41.21,999.99,0.000000,0.000000,0.00,0,0,0.9697,-0.3235,-0.1221,3.9313,2.9466,-0.4962,1.030
24.391,28.86,41.26,999.87,0.000000,0.000000,0.00,0,0,0.9619,-0.3247,-0.1196,1.9466,3.1069,-0.9237,1.022
24.397,28.86,41.26,999.87,0.000000,0.000000,0.00,0,0,0.9648,-0.3311,-0.1326,2.0458,2.9924,-1.2214,1.029
24.403,28.86,41.26,999.87,0.000000,0.000000,0.00,0,0,0.9656,-0.3210,-0.1174,2.0076,2.9237,-1.3740,1.024
24.409,28.86,41.26,999.87,0.000000,0.000000,0.00,0,0,0.9597,-0.3164,-0.1213,2.2977,2.9542,-1.3664,1.018
24.416,28.86,41.26,999.87,0.000000,0.000000,0.00,0,0,0.9619,-0.3210,-0.1230,2.3282,2.8473,-1.2443,1.022
24.422,28.86,41.26,999.87,0.000000,0.000000,0.00,0,0,0.9634,-0.3169,-0.1113,2.5191,2.8397,-1.0382,1.020
24.428,28.86,41.26,999.87,0.000000,0.000000,0.00,0,0,0.9695,-0.3140,-0.1111,2.3206,2.7634,-1.2519,1.025
24.434,28.86,41.26,999.87,0.000000,0.000000,0.00,0,0,0.9692,-0.3140,-0.1121,2.0153,2.6183,-0.8168,1.025
24.440,28.86,41.26,999.87,0.000000,0.000000,0.00,0,0,0.9763,-0.3125,-0.1099,1.8397,2.8473,-0.6718,1.031
24.446,28.86,41.26,999.87,0.000000,0.000000,0.00,0,0,0.9766,-0.3157,-0.1184,1.7481,2.5573,-0.5420,1.033
24.580,28.90,41.25,999.98,0.000000,0.000000,0.00,0,0,0.9763,-0.3193,-0.1162,0.7176,1.0992,0.0610,1.034
24.586,28.90,41.25,999.98,0.000000,0.000000,0.00,0,0,0.9741,-0.3206,-0.1194,0.5649,0.8168,0.2519,1.032
24.592,28.90,41.25,999.98,0.000000,0.000000,0.00,0,0,0.9717,-0.3220,-0.1162,0.4733,0.9466,0.0992,1.030
24.598,28.90,41.25,999.98,0.000000,0.000000,0.00,0,0,0.9692,-0.3252,-0.1277,0.2748,1.1603,0.2595,1.030
24.604,28.90,41.25,999.98,0.000000,0.000000,0.00,0,0,0.9690,-0.3247,-0.1309,0.3817,1.0305,0.1908,1.030
24.610,28.90,41.25,999.98,0.000000,0.000000,0.00,0,0,0.9666,-0.3220,-0.1328,0.6718,1.1069,0.0839,1.027
24.616,28.90,41.25,999.98,0.000000,0.000000,0.00,0,0,0.9563,-0.3223,-0.1145,0.4962,1.2443,0.2595,1.016
24.622,28.90,41.25,999.98,0.000000,0.000000,0.00,0,0,0.9639,-0.3223,-0.1187,0.4504,1.0992,0.2595,1.023
24.628,28.90,41.25,999.98,0.000000,0.000000,0.00,0,0,0.9583,-0.3235,-0.1306,0.5649,1.3282,0.1069,1.020
24.634,28.90,41.25,999.98,0.000000,0.000000,0.00,0,0,0.9626,-0.3193,-0.1245,0.0381,1.3817,0.3206,1.022
24.804,28.90,41.25,999.97,0.000000,0.000000,0.00,0,0,0.9629,-0.3169,-0.1328,2.3435,2.9313,0.4504,1.022
24.810,28.90,41.25,999.97,0.000000,0.000000,0.00,0,0,0.9675,-0.3240,-0.1353,2.1908,3.0382,0.4122,1.029
24.816,28.90,41.25,999.97,0.000000,0.000000,0.00,0,0,0.9690,-0.3237,-0.1372,1.9542,3.2137,0.5573,1.031
24.822,28.90,41.25,999.97,0.000000,0.000000,0.00,0,0,0.9751,-0.3262,-0.1316,1.7939,3.4351,0.1069,1.037
24.828,28.90,41.25,999.97,0.000000,0.000000,0.00,0,0,0.9670,-0.3303,-0.1333,1.5878,3.7023,0.5038,1.031
24.834,28.90,41.25,999.97,0.000000,0.000000,0.00,0,0,0.9700,-0.3320,-0.1377,1.6565,3.6947,0.3206,1.034
24.840,28.90,41.25,999.97,0.000000,0.000000,0.00,0,0,0.9707,-0.3267,-0.1331,1.9466,3.8397,0.3130,1.033
24.846,28.90,41.25,999.97,0.000000,0.000000,0.00,0,0,0.9705,-0.3210,-0.1348,2.0076,3.9542,0.0610,1.031
24.852,28.90,41.25,999.97,0.000000,0.000000,0.00,0,0,0.9700,-0.3335,-0.1404,2.7328,3.9924,0.4885,1.035
24.858,28.90,41.25,999.97,0.000000,0.000000,0.00,0,0,0.9763,-0.3325,-0.1489,3.1908,4.0687,0.3817,1.042
25.034,28.90,41.25,999.96,0.000000,0.000000,0.00,0,0,0.9653,-0.3118,-0.1033,5.3206,5.5802,0.0763,1.020
25.040,28.90,41.25,999.96,0.000000,0.000000,0.00,0,0,0.9595,-0.3228,-0.1028,4.9389,5.6641,0.0916,1.018
25.046,28.90,41.25,999.96,0.000000,0.000000,0.00,0,0,0.9644,-0.3196,-0.0998,4.9084,5.4504,0.0229,1.021
25.052,28.90,41.25,999.96,0.000000,0.000000,0.00,0,0,0.9548,-0.3289,-0.1023,4.5573,5.3435,-0.0992,1.015
25.058,28.90,41.25,999.96,0.000000,0.000000,0.00,0,0,0.9595,-0.3257,-0.1028,4.2672,5.2595,-0.3740,1.018
25.064,28.90,41.25,999.97,0.000000,0.000000,0.00,0,0,0.9587,-0.3293,-0.1013,4.2901,5.3511,-0.3053,1.019
25.070,28.90,41.25,999.97,0.000000,0.000000,0.00,0,0,0.9573,-0.3298,-0.1108,4.0534,5.2748,-0.5954,1.019
25.076,28.90,41.25,999.97,0.000000,0.000000,0.00,0,0,0.9592,-0.3330,-0.1086,4.0840,5.4198,-0.6412,1.021
25.082,28.90,41.25,999.97,0.000000,0.000000,0.00,0,0,0.9658,-0.3279,-0.1096,4.1603,5.4198,-0.7786,1.026
25.088,28.90,41.25,999.97,0.000000,0.000000,0.00,0,0,0.9692,-0.3274,-0.1213,4.3511,5.3511,-0.8626,1.030
