Time_s,Temperature_C,Humidity_%,Pressure_hPa,Lat,Lng,Alt_m,Fix,Sats,AccelX_g,AccelY_g,AccelZ_g,GyroX_deg_s,GyroY_deg_s,GyroZ_deg_s,TotalAccel
3.382,24.52,51.63,1000.26,0.000000,0.000000,0.00,0,1,1.0005,-0.1460,-0.1897,2.1069,-14.6794,2.1756,1.029
3.388,24.52,51.63,1000.26,0.000000,0.000000,0.00,0,1,1.0059,-0.1531,-0.1716,2.8779,-15.5878,2.9008,1.032
3.394,24.52,51.63,1000.26,0.000000,0.000000,0.00,0,1,1.0100,-0.1523,-0.1772,2.9695,-16.3588,3.4122,1.037
3.400,24.52,51.63,1000.26,0.000000,0.000000,0.00,0,1,1.0120,-0.1533,-0.1638,3.4427,-16.8092,3.7557,1.037
3.406,24.52,51.63,1000.26,0.000000,0.000000,0.00,0,1,1.0222,-0.1563,-0.1604,4.1221,-17.0382,3.6870,1.046
3.412,24.52,51.66,1000.26,0.000000,0.000000,0.00,0,1,1.0298,-0.1511,-0.1563,5.0153,-17.1679,3.6641,1.052
3.418,24.52,51.66,1000.26,0.000000,0.000000,0.00,0,1,1.0300,-0.1614,-0.1499,6.1374,-16.7557,2.9618,1.053
3.424,24.52,51.66,1000.26,0.000000,0.000000,0.00,0,1,0.9907,-0.1619,-0.1558,7.3588,-16.5573,2.7023,1.016
3.430,24.52,51.66,1000.26,0.000000,0.000000,0.00,0,1,0.9980,-0.1558,-0.1541,8.7634,-15.9008,1.9084,1.022
3.436,24.52,51.66,1000.26,0.000000,0.000000,0.00,0,1,0.9685,-0.1509,-0.1638,9.7176,-14.9313,0.3588,0.994
3.491,24.52,51.66,1000.26,0.000000,0.000000,0.00,0,1,1.0454,-0.2239,-0.3284,20.1374,7.6641,-10.8779,1.118
3.497,24.52,51.66,1000.26,0.000000,0.000000,0.00,0,1,1.0613,-0.2686,-0.3550,28.7786,9.4046,-11.2214,1.151
3.503,24.52,51.66,1000.26,0.000000,0.000000,0.00,0,1,1.0554,-0.2813,-0.3176,36.9771,11.0611,-12.5878,1.137
3.509,24.50,51.65,1000.23,0.000000,0.000000,0.00,0,1,1.0503,-0.2668,-0.2700,42.9008,13.0916,-13.8168,1.117
3.515,24.50,51.65,1000.23,0.000000,0.000000,0.00,0,1,1.0569,-0.2466,-0.2300,46.0153,15.2443,-15.7557,1.109
3.521,24.50,51.65,1000.23,0.000000,0.000000,0.00,0,1,1.0505,-0.2258,-0.1865,47.5649,17.3511,-17.6031,1.091
3.527,24.50,51.65,1000.23,0.000000,0.000000,0.00,0,1,1.0320,-0.1797,-0.1863,47.3664,19.9389,-19.3588,1.064
3.533,24.50,51.65,1000.23,0.000000,0.000000,0.00,0,1,1.0088,-0.1489,-0.1663,45.9084,22.3130,-20.7023,1.033
3.539,24.50,51.65,1000.23,0.000000,0.000000,0.00,0,1,0.9912,-0.1221,-0.1882,44.3435,24.5649,-22.3817,1.016
3.545,24.50,51.65,1000.23,0.000000,0.000000,0.00,0,1,0.9663,-0.1206,-0.2083,43.0153,26.7634,-23.0458,0.996
3.625,24.49,51.61,1000.20,0.000000,0.000000,0.00,0,1,1.0537,-0.0048,-0.1006,21.1221,31.2290,-16.6489,1.059
3.631,24.49,51.61,1000.20,0.000000,0.000000,0.00,0,1,0.9622,0.0261,-0.0681,19.2977,29.0153,-16.0992,0.965
3.637,24.49,51.61,1000.20,0.000000,0.000000,0.00,0,1,1.0093,-0.0144,-0.0839,20.6336,27.0458,-13.8397,1.013
3.643,24.49,51.61,1000.20,0.000000,0.000000,0.00,0,1,1.0337,-0.0065,-0.1047,20.8168,26.7328,-11.6794,1.039
3.649,24.49,51.61,1000.20,0.000000,0.000000,0.00,0,1,1.1072,0.0249,-0.1321,21.7176,24.8702,-10.8550,1.115
3.655,24.49,51.61,1000.20,0.000000,0.000000,0.00,0,1,0.9929,0.0564,-0.1831,22.0611,24.6489,-7.8244,1.011
3.661,24.49,51.61,1000.20,0.000000,0.000000,0.00,0,1,1.0068,-0.0168,-0.1250,21.6031,22.2595,-6.4962,1.015
3.667,24.49,51.61,1000.20,0.000000,0.000000,0.00,0,1,1.0037,0.0244,-0.1992,19.4733,22.8626,-3.3969,1.024
3.673,24.49,51.61,1000.20,0.000000,0.000000,0.00,0,1,0.9773,-0.0639,-0.1006,23.2290,21.5191,-1.0458,0.985
3.679,24.49,51.61,1000.21,0.000000,0.000000,0.00,0,1,1.0054,-0.0305,-0.0539,24.4733,-0.1832,14.8931,1.007
3.883,24.54,51.60,1000.29,0.000000,0.000000,0.00,0,1,1.0046,-0.0644,-0.0920,19.8473,-3.1908,-1.6412,1.011
3.889,24.54,51.60,1000.29,0.000000,0.000000,0.00,0,1,1.0107,-0.0564,-0.0966,19.8931,-3.0916,-1.5802,1.017
3.895,24.54,51.60,1000.28,0.000000,0.000000,0.00,0,1,1.0117,-0.0659,-0.0859,21.1069,-2.5725,-1.2443,1.017
3.901,24.54,51.57,1000.28,0.000000,0.000000,0.00,0,1,1.0144,-0.0708,-0.0981,22.9160,-2.8092,-1.1069,1.022
3.907,24.54,51.57,1000.28,0.000000,0.000000,0.00,0,1,1.0300,-0.0671,-0.0947,24.6183,-2.7023,-0.2977,1.037
3.913,24.54,51.57,1000.28,0.000000,0.000000,0.00,0,1,1.0125,-0.0920,-0.1047,31.6412,-5.0840,0.4275,1.022
3.988,24.54,51.57,1000.28,0.000000,0.000000,0.00,0,1,1.0247,-0.0842,-0.1042,30.1527,-5.8168,0.0305,1.033
3.994,24.54,51.59,1000.27,0.000000,0.000000,0.00,0,1,1.0325,-0.0903,-0.1040,29.0229,-6.6641,-0.2672,1.042
4.055,24.52,51.59,1000.27,0.000000,0.000000,0.00,0,1,1.0037,-0.0625,-0.1113,27.8244,-16.1145,-4.0763,1.012
4.115,24.53,51.57,1000.27,0.000000,0.000000,0.00,0,1,1.0073,-0.0461,-0.1750,16.3817,-18.3893,-8.1603,1.023
4.197,24.53,51.57,1000.26,0.000000,0.000000,0.00,0,1,1.0347,-0.0390,-0.1890,15.5802,-8.4656,-5.0000,1.053
4.209,24.53,51.57,1000.26,0.000000,0.000000,0.00,0,1,1.0120,-0.0261,-0.1921,7.9008,1.6412,6.4198,1.030
4.288,24.52,51.54,1000.28,0.000000,0.000000,0.00,0,1,1.0154,-0.0383,-0.1963,8.1374,3.1908,7.4733,1.035
4.365,24.52,51.54,1000.28,0.000000,0.000000,0.00,0,1,1.0181,-0.0605,-0.1584,13.7939,11.2901,8.3130,1.032
4.418,24.53,51.55,1000.28,0.000000,0.000000,0.00,0,1,1.0181,-0.0837,-0.1384,10.7634,9.3817,7.5115,1.031
4.430,24.53,51.55,1000.28,0.000000,0.000000,0.00,0,1,1.0071,-0.0815,-0.1448,10.2977,8.9084,7.1908,1.021
4.442,24.53,51.55,1000.28,0.000000,0.000000,0.00,0,1,1.0134,-0.0835,-0.1411,9.8855,8.1756,6.7099,1.027
4.453,24.53,51.55,1000.28,0.000000,0.000000,0.00,0,1,1.0181,-0.0810,-0.1389,9.3282,7.5878,6.2977,1.031
4.515,24.54,51.55,1000.28,0.000000,0.000000,0.00,0,1,1.0110,-0.0915,-0.1216,8.4809,3.2824,1.9313,1.022
4.575,24.54,51.55,1000.28,0.000000,0.000000,0.00,0,1,1.0059,-0.0871,-0.1194,9.8473,-2.8015,-0.8321,1.017
4.618,24.54,51.53,1000.30,0.000000,0.000000,0.00,0,1,1.0132,-0.0876,-0.1372,11.2443,-5.0229,-0.9771,1.026
4.631,24.54,51.53,1000.30,0.000000,0.000000,0.00,0,1,1.0071,-0.0891,-0.1287,11.7176,-5.0763,-1.1679,1.019
4.645,24.54,51.53,1000.30,0.000000,0.000000,0.00,0,1,1.0083,-0.0781,-0.1382,11.6260,-4.8779,-1.3740,1.021
4.715,24.54,51.52,1000.29,0.000000,0.000000,0.00,0,1,1.0000,-0.0798,-0.1777,9.7710,-2.0076,1.2519,1.019
4.775,24.54,51.52,1000.29,0.000000,0.000000,0.00,0,1,1.0291,-0.0778,-0.1580,6.8626,3.1756,3.1221,1.044
4.787,24.54,51.52,1000.29,0.000000,0.000000,0.00,0,1,1.0271,-0.0893,-0.1611,6.7863,3.7939,3.4046,1.043
4.816,24.54,51.52,1000.29,0.000000,0.000000,0.00,0,1,1.0334,-0.0949,-0.1475,7.7557,4.2901,3.5954,1.048
4.830,24.54,51.52,1000.29,0.000000,0.000000,0.00,0,1,1.0315,-0.0856,-0.1436,8.4733,4.0305,3.0611,1.045
4.842,24.54,51.52,1000.29,0.000000,0.000000,0.00,0,1,1.0239,-0.0920,-0.1440,9.0611,3.9237,2.5802,1.038
4.913,24.53,51.52,1000.26,0.000000,0.000000,0.00,0,1,1.0088,-0.0974,-0.1328,12.0153,0.4733,-0.5038,1.022
5.018,24.54,51.51,1000.30,0.000000,0.000000,0.00,0,1,1.0110,-0.0539,-0.1770,10.1527,-3.1298,-0.8397,1.028
5.107,24.54,51.51,1000.30,0.000000,0.000000,0.00,0,1,1.0051,-0.0546,-0.1814,6.9008,-1.8473,-1.0153,1.023
5.113,24.54,51.51,1000.30,0.000000,0.000000,0.00,0,1,1.0107,-0.0627,-0.1821,6.2901,-1.4046,-1.0305,1.029
5.118,24.54,51.51,1000.30,0.000000,0.000000,0.00,0,1,1.0117,-0.0607,-0.1841,5.1832,-0.9313,-0.8092,1.030
5.124,24.54,51.51,1000.30,0.000000,0.000000,0.00,0,1,1.0203,-0.0476,-0.1858,4.0000,-0.5496,-0.5802,1.038
5.130,24.54,51.51,1000.30,0.000000,0.000000,0.00,0,1,1.1216,0.0390,-0.2688,9.7481,-1.4580,-0.5496,1.154
5.136,24.54,51.51,1000.30,0.000000,0.000000,0.00,0,1,1.0188,0.0434,-0.2483,11.8092,-4.3969,2.2214,1.050
5.142,24.54,51.51,1000.30,0.000000,0.000000,0.00,0,1,1.1013,-0.1250,-0.1814,-1.2595,-2.6412,1.7863,1.123
5.148,24.54,51.51,1000.30,0.000000,0.000000,0.00,0,1,1.1125,-0.0544,-0.0671,-8.7939,2.7939,-1.0992,1.116
5.154,24.54,51.51,1000.30,0.000000,0.000000,0.00,0,1,1.0576,0.0954,-0.4700,4.2824,4.9084,-3.6489,1.161
5.212,24.54,51.47,1000.27,0.000000,0.000000,0.00,0,1,1.0439,-0.0671,-0.1543,3.7405,4.5420,3.0458,1.057
5.218,24.54,51.47,1000.26,0.000000,0.000000,0.00,0,1,0.9678,-0.4001,-0.6089,6.1221,11.8244,-3.2595,1.211
5.292,24.54,51.50,1000.27,0.000000,0.000000,0.00,0,1,1.2839,0.2219,-0.1509,9.8931,20.0611,16.3893,1.312
5.298,24.54,51.50,1000.27,0.000000,0.000000,0.00,0,1,1.0005,-0.2427,-0.2419,5.0305,23.5725,7.0687,1.058
5.304,24.54,51.50,1000.27,0.000000,0.000000,0.00,0,1,1.0322,-0.1563,-0.0544,-3.0305,26.9695,4.4198,1.045
5.310,24.54,51.50,1000.27,0.000000,0.000000,0.00,0,1,1.0789,-0.1362,-0.2197,-4.2137,24.8702,2.5573,1.109
5.316,24.54,51.50,1000.27,0.000000,0.000000,0.00,0,1,0.9934,-0.2627,-0.3208,8.9924,27.6412,-3.5038,1.076
5.322,24.54,51.50,1000.27,0.000000,0.000000,0.00,0,1,1.0105,0.0385,0.0141,10.4275,27.1145,-0.0916,1.011
5.328,24.54,51.50,1000.27,0.000000,0.000000,0.00,0,1,1.0415,-0.2112,-0.0949,-1.7786,31.7176,-3.9924,1.067
5.334,24.54,51.53,1000.28,0.000000,0.000000,0.00,0,1,1.1096,0.2244,0.0002,13.7023,-15.8779,-12.1450,1.132
5.444,24.54,51.53,1000.28,0.000000,0.000000,0.00,0,1,0.9712,-0.0188,-0.1885,0.5878,-12.3664,-5.0000,0.989
5.450,24.54,51.56,1000.28,0.000000,0.000000,0.00,0,1,1.0439,-0.0334,-0.2383,10.8015,-22.5649,-2.6489,1.071
5.525,24.55,51.56,1000.28,0.000000,0.000000,0.00,0,1,1.0476,-0.0112,-0.2329,10.6107,-20.7023,0.4046,1.073
5.531,24.55,51.56,1000.28,0.000000,0.000000,0.00,0,1,1.0007,-0.0742,-0.2686,9.5573,-15.8779,1.1756,1.039
5.537,24.55,51.56,1000.28,0.000000,0.000000,0.00,0,1,1.0247,0.0236,-0.1479,2.9924,-13.4504,2.3130,1.036
5.543,24.55,51.56,1000.28,0.000000,0.000000,0.00,0,1,1.0146,-0.0366,-0.2288,0.2824,-11.6489,3.2366,1.041
5.549,24.55,51.56,1000.28,0.000000,0.000000,0.00,0,1,1.0166,-0.0485,-0.2605,1.7328,-10.9847,3.5344,1.051
5.555,24.55,51.59,1000.29,0.000000,0.000000,0.00,0,1,1.0369,-0.0346,-0.2466,1.0153,-9.3588,4.1221,1.066
5.561,24.55,51.59,1000.29,0.000000,0.000000,0.00,0,1,1.0645,-0.0346,-0.2080,-2.4046,-7.9237,3.1069,1.085
5.567,24.55,51.59,1000.29,0.000000,0.000000,0.00,0,1,1.0579,-0.0241,-0.1829,-7.0840,-7.6718,4.1221,1.074
5.642,24.55,51.59,1000.29,0.000000,0.000000,0.00,0,1,1.0259,-0.0856,-0.2070,-0.1450,9.4351,1.1450,1.050
5.648,24.55,51.59,1000.29,0.000000,0.000000,0.00,0,1,1.0264,-0.0727,-0.2026,1.5038,10.3435,0.1756,1.049
5.654,24.53,51.63,1000.26,0.000000,0.000000,0.00,0,1,1.0259,-0.0732,-0.2200,2.3893,11.3206,-0.2748,1.052
5.660,24.53,51.63,1000.26,0.000000,0.000000,0.00,0,1,1.0295,-0.0622,-0.2092,3.1756,12.2061,-0.3740,1.052
5.666,24.53,51.63,1000.26,0.000000,0.000000,0.00,0,1,1.0159,-0.0627,-0.2058,3.2672,12.9847,-0.3053,1.038
5.672,24.53,51.63,1000.26,0.000000,0.000000,0.00,0,1,1.0139,-0.0522,-0.1926,2.5878,14.2748,-0.1298,1.033
5.678,24.53,51.63,1000.26,0.000000,0.000000,0.00,0,1,1.0137,-0.0566,-0.1995,1.7786,15.2595,0.0152,1.035
5.684,24.53,51.63,1000.26,0.000000,0.000000,0.00,0,1,1.0066,-0.0576,-0.1919,0.5038,15.9847,0.3511,1.026
5.690,24.53,51.63,1000.23,0.000000,0.000000,0.00,0,1,1.0073,-0.0747,-0.1289,5.7786,1.3817,10.4351,1.018
5.833,24.52,51.63,1000.23,0.000000,0.000000,0.00,0,1,1.0186,-0.0871,-0.1423,5.4580,0.7328,9.8702,1.032
5.876,24.55,51.63,1000.29,0.000000,0.000000,0.00,0,1,1.0251,-0.1116,-0.1584,7.4580,-2.3817,5.0611,1.043
5.882,24.55,51.63,1000.29,0.000000,0.000000,0.00,0,1,1.0215,-0.1140,-0.1543,7.5420,-2.7786,4.1985,1.039
5.888,24.55,51.63,1000.29,0.000000,0.000000,0.00,0,1,1.0244,-0.1152,-0.1528,7.5802,-2.8015,3.3130,1.042
5.894,24.55,51.63,1000.29,0.000000,0.000000,0.00,0,1,1.0261,-0.1118,-0.1541,7.6107,-2.8168,2.1908,1.044
5.900,24.55,51.63,1000.29,0.000000,0.000000,0.00,0,1,1.0203,-0.1104,-0.1482,7.4275,-2.9313,1.3435,1.037
5.906,24.55,51.63,1000.29,0.000000,0.000000,0.00,0,1,1.0222,-0.1079,-0.1553,7.2595,-3.1908,0.4656,1.040
5.912,24.55,51.63,1000.29,0.000000,0.000000,0.00,0,1,1.0247,-0.1016,-0.1587,7.0611,-3.1527,-0.5725,1.042
5.918,24.55,51.63,1000.29,0.000000,0.000000,0.00,0,1,1.0276,-0.1045,-0.1506,6.8473,-3.2901,-1.3053,1.044
5.924,24.55,51.63,1000.29,0.000000,0.000000,0.00,0,1,1.0332,-0.0981,-0.1548,6.6031,-3.0458,-2.1145,1.049
5.930,24.55,51.63,1000.29,0.000000,0.000000,0.00,0,1,1.0288,-0.0988,-0.1543,6.6870,-3.1679,-2.6031,1.045
6.010,24.55,51.68,1000.26,0.000000,0.000000,0.00,0,1,1.0151,-0.0771,-0.1790,6.2824,-2.3588,-7.6641,1.034
6.016,24.55,51.68,1000.26,0.000000,0.000000,0.00,0,1,1.0159,-0.0708,-0.1787,6.2061,-2.1374,-7.7328,1.034
6.022,24.55,51.68,1000.26,0.000000,0.000000,0.00,0,1,1.0090,-0.0634,-0.1738,5.9847,-2.1603,-7.7099,1.026
6.028,24.55,51.68,1000.26,0.000000,0.000000,0.00,0,1,1.0081,-0.0632,-0.1887,5.7176,-1.9924,-7.5802,1.028
6.034,24.55,51.68,1000.26,0.000000,0.000000,0.00,0,1,1.0078,-0.0605,-0.1870,5.6183,-1.7786,-7.4198,1.027
6.040,24.55,51.66,1000.28,0.000000,0.000000,0.00,0,1,1.0027,-0.0566,-0.1860,5.0611,-1.9160,-7.1298,1.021
6.046,24.56,51.66,1000.28,0.000000,0.000000,0.00,0,1,1.0010,-0.0576,-0.1848,4.7328,-1.7099,-7.0153,1.020
6.052,24.56,51.66,1000.28,0.000000,0.000000,0.00,0,1,0.9990,-0.0598,-0.1846,4.1603,-1.5344,-6.7786,1.018
6.058,24.56,51.66,1000.28,0.000000,0.000000,0.00,0,1,0.9958,-0.0539,-0.1892,3.6183,-1.6489,-6.2443,1.015
6.064,24.56,51.66,1000.28,0.000000,0.000000,0.00,0,1,0.9985,-0.0512,-0.1892,2.9008,-1.5573,-5.4198,1.018
6.200,24.53,51.68,1000.25,0.000000,0.000000,0.00,0,1,1.0264,-0.0673,-0.1792,2.9466,2.5954,4.5725,1.044
6.206,24.53,51.68,1000.25,0.000000,0.000000,0.00,0,1,1.0229,-0.0781,-0.1846,3.1527,2.6718,4.4275,1.042
6.212,24.53,51.68,1000.25,0.000000,0.000000,0.00,0,1,1.0237,-0.0788,-0.1868,3.2366,3.2214,4.2519,1.044
6.218,24.53,51.68,1000.25,0.000000,0.000000,0.00,0,1,1.0190,-0.0793,-0.1968,3.4046,3.3435,4.2366,1.041
6.224,24.53,51.68,1000.25,0.000000,0.000000,0.00,0,1,1.0193,-0.0761,-0.1863,3.6412,4.0076,4.1298,1.039
6.230,24.53,51.68,1000.25,0.000000,0.000000,0.00,0,1,1.0159,-0.0805,-0.1804,3.6565,4.0763,3.4885,1.035
6.236,24.56,51.70,1000.27,0.000000,0.000000,0.00,0,1,1.0215,-0.0827,-0.1833,3.2672,4.6260,3.5344,1.041
6.242,24.56,51.70,1000.27,0.000000,0.000000,0.00,0,1,1.0115,-0.0773,-0.1860,3.1527,5.0076,2.9008,1.031
6.248,24.56,51.70,1000.27,0.000000,0.000000,0.00,0,1,1.0164,-0.0791,-0.1829,2.8855,5.2824,2.7939,1.036
6.254,24.56,51.70,1000.27,0.000000,0.000000,0.00,0,1,1.0176,-0.0793,-0.1824,2.7023,5.7405,2.4885,1.037
6.333,24.53,51.70,1000.24,0.000000,0.000000,0.00,0,1,1.0164,-0.0752,-0.1606,3.1450,5.8626,0.1756,1.032
6.339,24.53,51.70,1000.24,0.000000,0.000000,0.00,0,1,1.0144,-0.0830,-0.1692,2.9847,5.4580,0.3969,1.032
6.345,24.53,51.70,1000.24,0.000000,0.000000,0.00,0,1,1.0186,-0.0817,-0.1724,3.0153,5.2366,0.3130,1.036
6.351,24.53,51.70,1000.24,0.000000,0.000000,0.00,0,1,1.0166,-0.0881,-0.1523,3.2137,5.0305,0.0381,1.032
6.358,24.53,51.70,1000.24,0.000000,0.000000,0.00,0,1,1.0176,-0.0749,-0.1602,3.3740,4.4504,0.3969,1.033
6.364,24.53,51.70,1000.24,0.000000,0.000000,0.00,0,1,1.0129,-0.0800,-0.1553,3.5115,4.1527,0.2977,1.028
6.370,24.53,51.70,1000.24,0.000000,0.000000,0.00,0,1,1.0151,-0.0822,-0.1658,3.8779,3.8015,0.4580,1.032
6.376,24.53,51.70,1000.24,0.000000,0.000000,0.00,0,1,1.0115,-0.0854,-0.1577,4.0229,3.2595,0.5496,1.027
6.382,24.53,51.70,1000.24,0.000000,0.000000,0.00,0,1,1.0103,-0.0805,-0.1531,4.2214,3.0534,0.5115,1.025
6.388,24.53,51.70,1000.24,0.000000,0.000000,0.00,0,1,1.0134,-0.0832,-0.1519,4.3130,2.7481,0.2824,1.028
6.429,24.53,51.70,1000.22,0.000000,0.000000,0.00,0,1,1.0059,-0.0764,-0.1531,4.6870,0.4351,-0.1985,1.020
6.435,24.53,51.71,1000.22,0.000000,0.000000,0.00,0,1,1.0076,-0.0776,-0.1660,5.0153,0.3282,-0.6183,1.024
6.441,24.53,51.71,1000.22,0.000000,0.000000,0.00,0,1,1.0132,-0.0813,-0.1641,5.2977,-0.2290,-0.4809,1.030
6.447,24.53,51.71,1000.22,0.000000,0.000000,0.00,0,1,1.0159,-0.0798,-0.1711,5.6870,-0.3893,-0.3588,1.033
6.453,24.53,51.71,1000.22,0.000000,0.000000,0.00,0,1,1.0166,-0.0808,-0.1685,5.9618,-0.4427,-0.7939,1.034
6.459,24.53,51.71,1000.22,0.000000,0.000000,0.00,0,1,1.0215,-0.0759,-0.1643,6.3511,-0.6565,-0.5954,1.037
6.465,24.53,51.71,1000.22,0.000000,0.000000,0.00,0,1,1.0210,-0.0754,-0.1689,6.4962,-0.8626,-0.6947,1.038
6.471,24.53,51.71,1000.22,0.000000,0.000000,0.00,0,1,1.0193,-0.0771,-0.1729,6.5725,-0.7405,-1.0382,1.037
6.477,24.53,51.71,1000.22,0.000000,0.000000,0.00,0,1,1.0210,-0.0756,-0.1829,6.5344,-0.7099,-1.1603,1.040
6.483,24.53,51.71,1000.22,0.000000,0.000000,0.00,0,1,1.0251,-0.0786,-0.1882,6.4809,-0.5191,-1.0305,1.045
6.566,24.53,51.72,1000.23,0.000000,0.000000,0.00,0,1,1.0295,-0.0759,-0.1802,9.2214,4.2443,-2.7863,1.048
6.572,24.53,51.72,1000.23,0.000000,0.000000,0.00,0,1,1.0220,-0.0693,-0.1807,9.1374,5.0534,-2.8779,1.040
6.578,24.53,51.72,1000.23,0.000000,0.000000,0.00,0,1,1.0249,-0.0764,-0.1824,8.8244,5.5420,-2.8244,1.044
6.584,24.53,51.72,1000.23,0.000000,0.000000,0.00,0,1,1.0164,-0.0712,-0.1836,8.6870,6.0229,-2.8779,1.035
6.590,24.53,51.72,1000.23,0.000000,0.000000,0.00,0,1,1.0164,-0.0676,-0.1787,8.4885,6.3969,-3.0458,1.034
6.596,24.53,51.72,1000.23,0.000000,0.000000,0.00,0,1,1.0142,-0.0668,-0.1780,8.6336,6.8626,-3.0458,1.032
6.602,24.53,51.72,1000.23,0.000000,0.000000,0.00,0,1,1.0203,-0.0695,-0.1753,8.2672,7.2672,-2.7328,1.038
6.608,24.53,51.72,1000.23,0.000000,0.000000,0.00,0,1,1.0188,-0.0578,-0.1831,8.1603,7.7863,-2.5954,1.037
6.614,24.53,51.72,1000.23,0.000000,0.000000,0.00,0,1,1.0193,-0.0661,-0.1897,8.2748,8.2824,-2.2977,1.039
6.620,24.53,51.72,1000.23,0.000000,0.000000,0.00,0,1,1.0127,-0.0617,-0.1860,8.4656,8.4504,-1.8626,1.031
6.695,24.56,51.63,1000.27,0.000000,0.000000,0.00,0,1,1.0234,-0.0810,-0.1660,9.2137,14.3588,3.4656,1.040
6.701,24.56,51.63,1000.27,0.000000,0.000000,0.00,0,1,1.0178,-0.0759,-0.1626,9.5344,14.6260,3.0153,1.034
6.707,24.56,51.63,1000.27,0.000000,0.000000,0.00,0,1,1.0078,-0.0742,-0.1597,10.0305,15.2519,2.6565,1.023
6.713,24.56,51.63,1000.27,0.000000,0.000000,0.00,0,1,1.0029,-0.0732,-0.1621,10.2137,15.6565,2.6718,1.019
6.719,24.56,51.63,1000.27,0.000000,0.000000,0.00,0,1,1.0117,-0.0730,-0.1621,10.6489,16.1527,2.0916,1.027
6.725,24.57,51.74,1000.30,0.000000,0.000000,0.00,0,1,0.9968,-0.0749,-0.1665,11.1756,16.6031,1.6031,1.013
6.731,24.57,51.74,1000.30,0.000000,0.000000,0.00,0,1,1.0022,-0.0730,-0.1445,11.7786,17.0000,1.3588,1.015
6.737,24.57,51.74,1000.30,0.000000,0.000000,0.00,0,1,1.0010,-0.0756,-0.1494,12.2366,17.1527,1.1832,1.015
6.743,24.57,51.74,1000.30,0.000000,0.000000,0.00,0,1,1.0027,-0.0700,-0.1572,12.4198,17.7023,0.8397,1.017
6.749,24.57,51.74,1000.30,0.000000,0.000000,0.00,0,1,1.0059,-0.0576,-0.1230,2.7710,20.5114,0.3740,1.015
6.898,24.54,51.72,1000.25,0.000000,0.000000,0.00,0,1,1.0149,-0.0749,-0.0756,4.9466,19.9695,2.6336,1.020
6.904,24.54,51.72,1000.25,0.000000,0.000000,0.00,0,1,1.0190,-0.0681,-0.0749,3.9466,20.3206,2.3053,1.024
6.910,24.54,51.76,1000.31,0.000000,0.000000,0.00,0,1,0.9934,-0.0883,-0.0341,3.1832,21.5267,-1.4046,0.998
6.984,24.57,51.76,1000.31,0.000000,0.000000,0.00,0,1,0.9971,-0.0861,-0.0437,2.6794,21.4962,-1.5802,1.002
6.990,24.57,51.76,1000.31,0.000000,0.000000,0.00,0,1,0.9978,-0.0827,-0.0344,2.9237,21.3817,-1.8397,1.002
6.996,24.57,51.76,1000.31,0.000000,0.000000,0.00,0,1,1.0015,-0.0849,-0.0400,3.1527,21.1985,-2.1298,1.006
7.002,24.57,51.76,1000.31,0.000000,0.000000,0.00,0,1,1.0115,-0.0810,-0.0244,3.0992,21.0687,-2.0916,1.015
7.008,24.57,51.76,1000.31,0.000000,0.000000,0.00,0,1,1.0034,-0.0810,-0.0307,3.1603,20.6260,-1.9313,1.007
7.014,24.57,51.75,1000.28,0.000000,0.000000,0.00,0,1,1.0066,-0.0847,-0.0351,3.3130,20.6031,-2.1069,1.011
7.020,24.56,51.75,1000.28,0.000000,0.000000,0.00,0,1,0.9990,-0.0786,-0.0244,3.2214,20.0916,-1.7252,1.002
7.046,24.56,51.75,1000.28,0.000000,0.000000,0.00,0,1,1.0022,-0.0759,-0.0170,2.5649,18.3740,-1.2137,1.005
7.052,24.56,51.75,1000.28,0.000000,0.000000,0.00,0,1,0.9961,-0.0773,-0.0251,1.9160,18.0153,-1.1756,0.999
7.058,24.56,51.75,1000.28,0.000000,0.000000,0.00,0,1,0.9927,-0.0771,-0.0166,1.5191,17.6870,-1.1603,0.996
7.064,24.56,51.75,1000.28,0.000000,0.000000,0.00,0,1,0.9902,-0.0810,-0.0163,1.3206,17.0534,-1.1679,0.994
7.070,24.56,51.75,1000.28,0.000000,0.000000,0.00,0,1,0.9900,-0.0813,-0.0078,0.9542,16.5725,-1.4198,0.993
7.076,24.56,51.75,1000.28,0.000000,0.000000,0.00,0,1,0.9893,-0.0827,0.0070,1.2977,15.7099,-1.2290,0.993
7.082,24.56,51.75,1000.28,0.000000,0.000000,0.00,0,1,0.9861,-0.0913,-0.0207,1.5344,15.2672,-1.3511,0.991
7.088,24.56,51.75,1000.28,0.000000,0.000000,0.00,0,1,0.9878,-0.0798,0.0048,1.5038,14.4733,-1.8168,0.991
7.094,24.56,51.75,1000.28,0.000000,0.000000,0.00,0,1,0.9976,-0.0898,-0.0141,1.7023,13.4733,-2.2748,1.002
7.100,24.56,51.75,1000.28,0.000000,0.000000,0.00,0,1,0.9990,-0.0866,0.0180,2.1832,12.6412,-2.0992,1.003
7.160,24.55,51.75,1000.25,0.000000,0.000000,0.00,0,1,1.0029,-0.0700,0.0170,5.0382,3.1450,-4.4122,1.006
7.166,24.55,51.75,1000.25,0.000000,0.000000,0.00,0,1,1.0024,-0.0642,-0.0105,4.4046,2.5954,-4.6336,1.005
7.172,24.55,51.75,1000.25,0.000000,0.000000,0.00,0,1,1.0146,-0.0773,-0.0131,3.8397,1.4122,-4.3588,1.018
7.178,24.55,51.75,1000.25,0.000000,0.000000,0.00,0,1,1.0100,-0.0388,-0.0046,3.3664,0.6489,-3.9237,1.011
7.184,24.55,51.75,1000.25,0.000000,0.000000,0.00,0,1,1.0056,-0.0515,-0.0180,3.1221,0.2137,-3.7023,1.007
7.190,24.55,51.75,1000.25,0.000000,0.000000,0.00,0,1,1.0129,-0.0412,0.0139,1.9237,-0.0381,-3.0687,1.014
7.196,24.55,51.75,1000.25,0.000000,0.000000,0.00,0,1,1.0073,-0.0761,-0.0463,1.4656,-1.2137,-3.3053,1.011
7.201,24.55,51.75,1000.25,0.000000,0.000000,0.00,0,1,1.0090,-0.0488,-0.0073,1.3740,-1.6412,-2.5191,1.010
7.207,24.55,51.75,1000.24,0.000000,0.000000,0.00,0,1,0.9902,-0.0542,-0.0080,0.2366,-2.0916,-2.8092,0.992
7.214,24.57,51.70,1000.26,0.000000,0.000000,0.00,0,1,1.0161,-0.0478,-0.0544,-1.0916,2.9618,-1.0229,1.019
7.361,24.57,51.75,1000.26,0.000000,0.000000,0.00,0,1,1.0161,-0.0681,0.0000,4.8550,5.7634,2.2137,1.018
7.367,24.57,51.75,1000.26,0.000000,0.000000,0.00,0,1,1.0088,-0.0720,0.0048,5.6336,5.5573,2.4046,1.011
7.373,24.57,51.75,1000.26,0.000000,0.000000,0.00,0,1,1.0005,-0.0744,0.0083,6.7481,5.5878,2.8244,1.003
7.379,24.57,51.75,1000.26,0.000000,0.000000,0.00,0,1,1.0010,-0.0747,0.0051,7.7634,5.3588,2.6718,1.004
7.385,24.57,51.75,1000.26,0.000000,0.000000,0.00,0,1,1.0010,-0.0805,-0.0058,9.1908,5.2061,3.0916,1.004
7.390,24.57,51.75,1000.26,0.000000,0.000000,0.00,0,1,0.9966,-0.0808,-0.0078,10.5267,5.1832,3.4351,1.000
7.396,24.57,51.75,1000.26,0.000000,0.000000,0.00,0,1,1.0037,-0.0698,0.0043,11.3740,5.1374,3.2748,1.006
7.402,24.57,51.75,1000.27,0.000000,0.000000,0.00,0,1,0.9915,-0.0715,-0.0141,11.8779,5.2443,3.4351,0.994
7.408,24.57,51.75,1000.27,0.000000,0.000000,0.00,0,1,0.9900,-0.0739,-0.0002,11.9924,5.3893,3.4198,0.993
7.415,24.57,51.75,1000.27,0.000000,0.000000,0.00,0,1,0.9814,-0.0727,-0.0048,12.4351,5.1679,3.7405,0.984
7.456,24.57,51.75,1000.27,0.000000,0.000000,0.00,0,1,1.0039,-0.0788,-0.0324,16.2443,4.1527,5.9313,1.008
7.462,24.57,51.75,1000.27,0.000000,0.000000,0.00,0,1,1.0085,-0.0466,-0.0456,15.3969,4.7786,6.5115,1.011
7.468,24.57,51.75,1000.27,0.000000,0.000000,0.00,0,1,1.0017,-0.0512,-0.0507,14.8397,5.4275,6.8321,1.004
7.474,24.57,51.75,1000.27,0.000000,0.000000,0.00,0,1,1.0054,-0.0437,-0.0678,12.9160,6.8779,8.0229,1.009
7.480,24.57,51.75,1000.27,0.000000,0.000000,0.00,0,1,1.0127,-0.0156,-0.0610,11.1069,8.0382,8.4351,1.015
7.486,24.57,51.75,1000.27,0.000000,0.000000,0.00,0,1,1.0032,-0.0561,-0.0844,8.8015,9.8244,9.4656,1.008
7.492,24.57,51.75,1000.27,0.000000,0.000000,0.00,0,1,1.0139,-0.0273,-0.0900,6.5725,11.4351,10.1298,1.018
7.498,24.57,51.75,1000.27,0.000000,0.000000,0.00,0,1,1.0281,-0.0161,-0.0776,4.6260,13.2366,10.7939,1.031
7.504,24.56,51.79,1000.25,0.000000,0.000000,0.00,0,1,1.0244,-0.0322,-0.0800,2.8092,14.9924,11.3893,1.028
7.510,24.56,51.79,1000.25,0.000000,0.000000,0.00,0,1,1.0247,-0.0371,-0.0737,1.9695,16.5420,11.7557,1.028
7.586,24.56,51.79,1000.25,0.000000,0.000000,0.00,0,1,0.9910,-0.1323,0.1023,6.2137,18.0611,9.4504,1.005
7.592,24.56,51.79,1000.25,0.000000,0.000000,0.00,0,1,0.9956,-0.1504,0.1106,6.3740,15.8550,8.1756,1.013
7.598,24.56,51.78,1000.24,0.000000,0.000000,0.00,0,1,0.9929,-0.1289,0.0844,11.5191,-12.2672,-4.4046,1.005
7.674,24.57,51.78,1000.24,0.000000,0.000000,0.00,0,1,0.9932,-0.1189,0.0971,10.9389,-14.0000,-5.0992,1.005
7.680,24.57,51.78,1000.24,0.000000,0.000000,0.00,0,1,0.9978,-0.1343,0.0659,10.9313,-14.9924,-6.1679,1.009
7.686,24.57,51.78,1000.24,0.000000,0.000000,0.00,0,1,0.9956,-0.1145,0.0803,11.0687,-16.5725,-6.5802,1.005
7.692,24.57,51.78,1000.24,0.000000,0.000000,0.00,0,1,0.9949,-0.1042,0.0415,9.5344,-16.9313,-7.3435,1.001
7.698,24.57,51.77,1000.27,0.000000,0.000000,0.00,0,1,1.0027,-0.1130,0.0112,8.7710,-17.1908,-8.5267,1.009
7.704,24.57,51.77,1000.27,0.000000,0.000000,0.00,0,1,1.0134,-0.1118,-0.0305,7.8092,-16.7557,-9.1527,1.020
7.710,24.57,51.77,1000.27,0.000000,0.000000,0.00,0,1,1.0173,-0.0983,-0.0500,6.3282,-15.9313,-10.0687,1.023
7.787,24.57,51.77,1000.27,0.000000,0.000000,0.00,0,1,1.0190,-0.0288,-0.0488,2.0840,11.5038,-5.1221,1.021
7.793,24.57,51.77,1000.26,0.000000,0.000000,0.00,0,1,1.0313,0.0466,0.2295,-0.5878,13.8855,-2.5420,1.058
7.798,24.56,51.77,1000.24,0.000000,0.000000,0.00,0,1,0.9978,-0.0737,0.0471,4.7252,11.7786,1.5496,1.002
7.874,24.56,51.77,1000.24,0.000000,0.000000,0.00,0,1,0.9878,-0.0725,0.0251,4.7786,11.2672,1.3511,0.991
7.880,24.56,51.77,1000.24,0.000000,0.000000,0.00,0,1,0.9836,-0.0683,0.0571,4.3053,10.2366,0.7328,0.988
7.886,24.56,51.77,1000.24,0.000000,0.000000,0.00,0,1,0.9873,-0.0786,0.0402,3.7405,9.3435,0.9924,0.991
7.891,24.56,51.78,1000.26,0.000000,0.000000,0.00,0,1,0.9841,-0.0690,0.0590,3.2290,7.9313,0.7481,0.988
7.897,24.57,51.78,1000.26,0.000000,0.000000,0.00,0,1,0.9858,-0.0773,0.0481,3.1985,6.6870,0.1298,0.990
7.903,24.57,51.78,1000.26,0.000000,0.000000,0.00,0,1,0.9802,-0.0805,0.0481,3.3053,5.0916,0.2214,0.985
7.909,24.57,51.78,1000.26,0.000000,0.000000,0.00,0,1,0.9817,-0.0800,0.0554,3.3359,3.6260,-0.3130,0.987
7.991,24.55,51.76,1000.23,0.000000,0.000000,0.00,0,1,1.0081,-0.0637,0.0026,1.8397,-7.3588,-3.8168,1.010
7.997,24.55,51.76,1000.23,0.000000,0.000000,0.00,0,1,1.0112,-0.0634,0.0075,1.2595,-6.9389,-4.0153,1.013
8.003,24.55,51.76,1000.23,0.000000,0.000000,0.00,0,1,1.0190,-0.0649,-0.0014,0.9618,-6.4504,-3.9618,1.021
8.009,24.55,51.76,1000.23,0.000000,0.000000,0.00,0,1,1.0146,-0.0593,0.0478,1.0687,-6.6260,-4.5649,1.018
8.015,24.55,51.76,1000.23,0.000000,0.000000,0.00,0,1,1.0203,-0.0380,-0.0136,0.9237,-5.6336,-3.9771,1.021
8.021,24.55,51.76,1000.23,0.000000,0.000000,0.00,0,1,1.0078,-0.0781,0.0207,1.2366,-5.9466,-4.7405,1.011
8.027,24.55,51.76,1000.23,0.000000,0.000000,0.00,0,1,1.0139,-0.0634,-0.0080,1.4275,-4.9466,-4.4198,1.016
8.033,24.55,51.76,1000.23,0.000000,0.000000,0.00,0,1,1.0166,-0.0578,-0.0039,2.3817,-4.5649,-4.1221,1.018
8.039,24.55,51.76,1000.23,0.000000,0.000000,0.00,0,1,1.0308,-0.0427,-0.0039,2.2672,-3.7710,-4.7328,1.032
8.045,24.55,51.76,1000.23,0.000000,0.000000,0.00,0,1,1.0071,-0.0593,-0.0046,2.7405,-3.1069,-3.5191,1.009
8.086,24.55,51.76,1000.21,0.000000,0.000000,0.00,0,1,1.0288,-0.0715,-0.0476,3.8626,6.5878,-0.8015,1.032
8.092,24.54,51.76,1000.21,0.000000,0.000000,0.00,0,1,1.0303,-0.0488,-0.0366,4.1603,8.0076,-0.1374,1.032
8.098,24.54,51.76,1000.21,0.000000,0.000000,0.00,0,1,1.0261,-0.0688,-0.0598,3.5420,9.7786,0.0000,1.030
8.104,24.54,51.76,1000.21,0.000000,0.000000,0.00,0,1,1.0266,-0.0578,-0.0258,3.3282,10.9160,-0.2748,1.029
8.110,24.54,51.76,1000.21,0.000000,0.000000,0.00,0,1,1.0266,-0.0549,-0.0395,3.2824,12.4122,0.1985,1.029
8.116,24.54,51.76,1000.21,0.000000,0.000000,0.00,0,1,1.0239,-0.0566,-0.0127,3.0611,13.5496,0.2824,1.026
8.122,24.54,51.76,1000.21,0.000000,0.000000,0.00,0,1,1.0083,-0.0644,-0.0095,3.0611,14.8931,0.0229,1.010
8.128,24.54,51.76,1000.21,0.000000,0.000000,0.00,0,1,1.0095,-0.0468,-0.0051,2.7863,15.4046,-0.0687,1.011
8.134,24.54,51.76,1000.21,0.000000,0.000000,0.00,0,1,1.0098,-0.0627,-0.0019,2.5496,16.3130,-0.1298,1.012
8.140,24.54,51.76,1000.21,0.000000,0.000000,0.00,0,1,1.0063,-0.0583,0.0092,2.5191,16.7557,0.1298,1.008
8.257,24.55,51.76,1000.21,0.000000,0.000000,0.00,0,1,0.9656,-0.0522,0.0734,1.0687,4.6565,-3.8702,0.970
8.263,24.55,51.76,1000.21,0.000000,0.000000,0.00,0,1,0.9663,-0.0622,0.0810,0.1298,4.0458,-3.9771,0.972
8.269,24.55,51.76,1000.21,0.000000,0.000000,0.00,0,1,0.9592,-0.0524,0.0908,0.0992,2.4733,-4.2443,0.965
8.275,24.55,51.76,1000.21,0.000000,0.000000,0.00,0,1,0.9597,-0.0625,0.0727,0.3435,1.1679,-4.0687,0.964
8.281,24.55,51.79,1000.28,0.000000,0.000000,0.00,0,1,0.9629,-0.0625,0.0505,-0.5878,1.2366,-4.0305,0.966
8.287,24.58,51.80,1000.28,0.000000,0.000000,0.00,0,1,0.9558,-0.0612,0.0380,-0.8702,0.8779,-4.2137,0.959
8.292,24.58,51.80,1000.28,0.000000,0.000000,0.00,0,1,0.9622,-0.0534,0.0461,-0.9847,0.0687,-4.3740,0.965
8.298,24.58,51.80,1000.28,0.000000,0.000000,0.00,0,1,0.9663,-0.0402,0.0593,-1.7863,-0.4046,-3.4504,0.969
8.304,24.58,51.80,1000.28,0.000000,0.000000,0.00,0,1,0.9695,-0.0481,0.0568,-2.1221,-0.9313,-3.3817,0.972
8.310,24.58,51.80,1000.28,0.000000,0.000000,0.00,0,1,0.9790,-0.0485,0.0471,-1.7863,-1.2061,-2.7099,0.981
8.356,24.58,51.80,1000.28,0.000000,0.000000,0.00,0,1,1.0020,-0.0656,0.0800,5.2672,-5.2901,2.4198,1.007
8.362,24.58,51.80,1000.28,0.000000,0.000000,0.00,0,1,1.0076,-0.0810,0.0654,5.8092,-5.7328,2.7786,1.013
8.368,24.58,51.80,1000.28,0.000000,0.000000,0.00,0,1,1.0034,-0.0732,0.0703,5.9160,-5.6183,2.7786,1.009
8.374,24.58,51.80,1000.28,0.000000,0.000000,0.00,0,1,1.0156,-0.0686,0.0590,5.3893,-5.6412,2.8855,1.020
8.380,24.55,51.79,1000.24,0.000000,0.000000,0.00,0,1,1.0037,-0.0727,0.0656,4.7939,-5.3664,2.7328,1.008
8.386,24.55,51.79,1000.24,0.000000,0.000000,0.00,0,1,1.0090,-0.0698,0.0668,4.6794,-5.0076,2.5954,1.014
8.392,24.55,51.79,1000.24,0.000000,0.000000,0.00,0,1,1.0051,-0.0786,0.0683,4.1374,-5.0992,1.8779,1.011
8.398,24.55,51.79,1000.24,0.000000,0.000000,0.00,0,1,1.0095,-0.0898,0.0485,3.9466,-5.1527,2.0076,1.015
8.404,24.55,51.79,1000.24,0.000000,0.000000,0.00,0,1,1.0300,-0.0554,-0.0222,4.3130,10.4656,-4.6107,1.032
8.479,24.56,51.76,1000.25,0.000000,0.000000,0.00,0,1,1.0283,-0.0415,-0.0170,4.1450,12.0229,-4.2290,1.029
8.583,24.57,51.77,1000.27,0.000000,0.000000,0.00,0,1,0.9819,-0.0312,0.0693,4.4962,7.9695,-2.3282,0.985
8.589,24.57,51.77,1000.27,0.000000,0.000000,0.00,0,1,0.9763,-0.0305,0.0600,4.1756,7.4656,-2.3130,0.979
8.595,24.57,51.77,1000.27,0.000000,0.000000,0.00,0,1,0.9932,-0.0439,0.0639,4.0153,6.7863,-2.2672,0.996
8.601,24.57,51.77,1000.27,0.000000,0.000000,0.00,0,1,0.9978,-0.0397,0.0654,3.3053,6.0382,-2.1069,1.001
8.607,24.57,51.77,1000.27,0.000000,0.000000,0.00,0,1,0.9917,-0.0322,0.0769,2.9542,5.1832,-1.7786,0.995
8.613,24.57,51.77,1000.27,0.000000,0.000000,0.00,0,1,0.9905,-0.0393,0.0949,2.3664,4.4580,-1.6870,0.996
8.619,24.57,51.77,1000.27,0.000000,0.000000,0.00,0,1,0.9810,-0.0417,0.0935,2.2901,3.2214,-1.8779,0.986
8.625,24.57,51.77,1000.27,0.000000,0.000000,0.00,0,1,0.9810,-0.0500,0.1013,2.1527,2.2748,-1.5573,0.987
8.631,24.57,51.77,1000.27,0.000000,0.000000,0.00,0,1,0.9761,-0.0449,0.1077,2.1069,0.7939,-1.6489,0.983
8.637,24.57,51.77,1000.27,0.000000,0.000000,0.00,0,1,0.9839,-0.0459,0.0180,4.0687,-0.5649,-1.9389,0.985
8.686,24.56,51.78,1000.23,0.000000,0.000000,0.00,0,1,0.9976,-0.0481,0.0551,5.0076,-3.2366,-1.2595,1.000
8.692,24.56,51.78,1000.23,0.000000,0.000000,0.00,0,1,1.0024,-0.0459,0.0468,5.7786,-2.8550,-0.6260,1.005
8.698,24.56,51.78,1000.23,0.000000,0.000000,0.00,0,1,0.9985,-0.0322,0.0598,5.7786,-2.4198,-0.9542,1.001
8.704,24.56,51.78,1000.23,0.000000,0.000000,0.00,0,1,1.0000,-0.0314,0.0510,4.9313,-1.3740,-0.4885,1.002
8.710,24.56,51.78,1000.23,0.000000,0.000000,0.00,0,1,1.0120,-0.0451,0.0332,5.0763,-0.4580,-0.4656,1.014
8.716,24.56,51.78,1000.23,0.000000,0.000000,0.00,0,1,1.0134,-0.0456,0.0327,4.9237,0.5344,-0.1985,1.015
8.722,24.56,51.78,1000.23,0.000000,0.000000,0.00,0,1,1.0071,-0.0388,0.0449,4.6412,1.3817,-0.2748,1.009
8.728,24.56,51.78,1000.23,0.000000,0.000000,0.00,0,1,1.0088,-0.0439,0.0432,5.0611,2.3588,-0.1298,1.011
8.734,24.56,51.77,1000.29,0.000000,0.000000,0.00,0,1,0.9709,-0.0686,0.0874,2.4580,6.5725,0.7786,0.977
8.877,24.58,51.77,1000.29,0.000000,0.000000,0.00,0,1,0.9788,-0.0549,0.0791,2.3588,5.8168,1.5191,0.983
8.944,24.58,51.77,1000.29,0.000000,0.000000,0.00,0,1,0.9902,-0.0647,0.0966,0.3206,-1.3282,0.4580,0.997
8.950,24.58,51.75,1000.24,0.000000,0.000000,0.00,0,1,1.0059,-0.0708,0.0835,8.1985,-0.9389,-2.2214,1.012
9.024,24.57,51.75,1000.24,0.000000,0.000000,0.00,0,1,1.0068,-0.0720,0.0495,9.1527,-1.1603,-2.1527,1.011
9.030,24.57,51.75,1000.24,0.000000,0.000000,0.00,0,1,1.0029,-0.0481,0.0856,8.9466,-0.6336,-2.5954,1.008
9.036,24.57,51.75,1000.24,0.000000,0.000000,0.00,0,1,0.9946,-0.0439,0.0412,9.2366,-0.6870,-1.9084,0.996
9.042,24.57,51.75,1000.24,0.000000,0.000000,0.00,0,1,0.9905,-0.0773,0.0585,9.0534,-0.5267,-2.5344,0.995
9.048,24.57,51.75,1000.24,0.000000,0.000000,0.00,0,1,0.9966,-0.0466,0.0617,8.0687,-0.0916,-2.5191,1.000
9.054,24.57,51.75,1000.24,0.000000,0.000000,0.00,0,1,0.9934,-0.0434,0.0483,8.0229,0.5649,-3.6794,0.996
9.060,24.57,51.73,1000.25,0.000000,0.000000,0.00,0,1,0.9910,-0.0393,0.0229,7.7863,1.3053,-3.5573,0.992
9.066,24.58,51.73,1000.25,0.000000,0.000000,0.00,0,1,0.9900,-0.0275,0.0388,6.8855,2.0763,-3.7481,0.991
9.146,24.58,51.73,1000.25,0.000000,0.000000,0.00,0,1,0.9895,-0.0229,0.0676,1.4656,1.5725,1.3740,0.992
9.152,24.58,51.73,1000.25,0.000000,0.000000,0.00,0,1,0.9905,-0.0268,0.0712,1.1908,1.1221,1.3130,0.993
9.159,24.57,51.73,1000.26,0.000000,0.000000,0.00,0,1,0.9873,-0.0361,0.0866,0.9847,0.4275,1.4962,0.992
9.165,24.57,51.73,1000.26,0.000000,0.000000,0.00,0,1,0.9907,-0.0314,0.0859,0.7939,-0.3053,1.2977,0.995
9.171,24.57,51.73,1000.26,0.000000,0.000000,0.00,0,1,0.9917,-0.0344,0.0734,0.6641,-0.9008,1.4885,0.995
9.177,24.57,51.73,1000.26,0.000000,0.000000,0.00,0,1,0.9866,-0.0407,0.0874,0.0381,-1.4198,1.0153,0.991
9.183,24.57,51.73,1000.26,0.000000,0.000000,0.00,0,1,0.9939,-0.0336,0.0717,-0.1298,-1.9618,1.2595,0.997
9.189,24.57,51.73,1000.26,0.000000,0.000000,0.00,0,1,0.9995,-0.0361,0.0803,-0.0763,-2.5191,1.3282,1.003
9.195,24.57,51.73,1000.26,0.000000,0.000000,0.00,0,1,0.9922,-0.0419,0.0798,-0.7405,-2.7481,0.8473,0.996
9.201,24.57,51.73,1000.26,0.000000,0.000000,0.00,0,1,0.9839,-0.0300,0.0825,-1.2366,-3.1374,1.0840,0.988
9.245,24.57,51.73,1000.26,0.000000,0.000000,0.00,0,1,0.9778,-0.0493,0.0742,-1.8244,-3.9389,-0.6947,0.982
9.251,24.55,51.75,1000.21,0.000000,0.000000,0.00,0,1,1.0110,-0.0473,0.0481,0.4122,-1.9847,-0.6489,1.013
9.324,24.55,51.75,1000.21,0.000000,0.000000,0.00,0,1,1.0093,-0.0500,0.0520,0.4504,-1.7710,-1.0458,1.012
9.330,24.55,51.75,1000.21,0.000000,0.000000,0.00,0,1,1.0090,-0.0441,0.0449,0.8092,-1.3588,-1.1527,1.011
9.336,24.55,51.75,1000.21,0.000000,0.000000,0.00,0,1,1.0103,-0.0500,0.0415,0.8397,-1.1221,-1.2595,1.012
9.342,24.59,51.79,1000.26,0.000000,0.000000,0.00,0,1,0.9861,-0.0351,0.0590,-1.6565,3.4275,-4.7634,0.988
9.417,24.59,51.79,1000.26,0.000000,0.000000,0.00,0,1,0.9917,-0.0263,0.0639,-1.8626,3.1985,-4.9237,0.994
9.423,24.59,51.79,1000.26,0.000000,0.000000,0.00,0,1,0.9934,-0.0312,0.0610,-1.8168,3.0916,-4.9084,0.996
9.429,24.59,51.79,1000.26,0.000000,0.000000,0.00,0,1,0.9968,-0.0285,0.0683,-1.9160,2.5496,-4.6947,1.000
9.435,24.59,51.79,1000.26,0.000000,0.000000,0.00,0,1,0.9858,-0.0222,0.0688,-2.1908,2.0840,-4.7405,0.988
9.565,24.59,51.75,1000.29,0.000000,0.000000,0.00,0,1,1.0046,-0.0295,0.0390,-1.7481,-9.4809,-5.0000,1.006
9.571,24.59,51.75,1000.29,0.000000,0.000000,0.00,0,1,1.0056,-0.0197,0.0439,-1.6336,-9.5954,-4.3053,1.007
9.577,24.59,51.75,1000.29,0.000000,0.000000,0.00,0,1,1.0115,-0.0127,0.0393,-1.6565,-9.8168,-5.1603,1.012
9.583,24.59,51.75,1000.29,0.000000,0.000000,0.00,0,1,1.0083,-0.0222,0.0334,-2.0153,-9.8321,-4.6031,1.009
9.589,24.59,51.75,1000.29,0.000000,0.000000,0.00,0,1,0.9990,-0.0258,0.0312,-2.0840,-9.6947,-4.3282,1.000
9.595,24.59,51.75,1000.29,0.000000,0.000000,0.00,0,1,1.0078,-0.0212,0.0380,-2.0382,-9.5725,-4.1756,1.009
9.601,24.59,51.75,1000.29,0.000000,0.000000,0.00,0,1,1.0078,-0.0285,0.0261,-2.0687,-9.4275,-4.5420,1.009
9.607,24.59,51.75,1000.29,0.000000,0.000000,0.00,0,1,1.0117,-0.0183,0.0439,-1.8473,-9.2824,-4.2290,1.013
9.613,24.59,51.75,1000.29,0.000000,0.000000,0.00,0,1,1.0093,-0.0224,0.0463,-1.4198,-9.3740,-4.4733,1.011
9.619,24.59,51.75,1000.29,0.000000,0.000000,0.00,0,1,1.0002,-0.0222,0.0446,-1.5267,-8.9771,-4.1069,1.001
9.676,24.57,51.74,1000.28,0.000000,0.000000,0.00,0,1,1.0225,-0.0231,0.0090,-0.0076,-4.9924,-4.6031,1.023
9.682,24.57,51.74,1000.28,0.000000,0.000000,0.00,0,1,1.0222,-0.0163,0.0085,-1.0382,-3.6947,-4.6336,1.022
9.688,24.57,51.74,1000.28,0.000000,0.000000,0.00,0,1,1.0232,-0.0163,0.0034,-1.1756,-2.7634,-4.7099,1.023
9.694,24.57,51.74,1000.28,0.000000,0.000000,0.00,0,1,1.0137,-0.0134,0.0029,-1.2672,-2.0840,-4.8321,1.014
9.700,24.57,51.74,1000.28,0.000000,0.000000,0.00,0,1,1.0007,0.0153,0.0305,0.7786,-1.1374,-4.4733,1.001
9.706,24.57,51.74,1000.28,0.000000,0.000000,0.00,0,1,1.0071,-0.0590,0.0105,-1.4198,-0.7939,-5.2443,1.009
9.712,24.57,51.74,1000.28,0.000000,0.000000,0.00,0,1,1.0183,0.0273,0.0080,-1.8626,0.8550,-4.9008,1.019
9.718,24.57,51.74,1000.28,0.000000,0.000000,0.00,0,1,1.0076,-0.0263,-0.0127,-1.0229,1.7634,-4.6260,1.008
9.724,24.58,51.74,1000.29,0.000000,0.000000,0.00,0,1,0.9902,-0.0109,0.0419,1.5191,-3.3969,-1.3740,0.991
9.867,24.59,51.74,1000.29,0.000000,0.000000,0.00,0,1,1.0012,-0.0065,0.0419,1.4351,-4.3664,-1.3053,1.002
9.995,24.58,51.73,1000.29,0.000000,0.000000,0.00,0,1,1.0161,-0.0231,0.0290,-3.2290,-4.4885,-5.6031,1.017
10.001,24.58,51.73,1000.29,0.000000,0.000000,0.00,0,1,1.0156,-0.0219,0.0271,-2.6336,-4.4198,-5.6336,1.016
10.007,24.58,51.73,1000.29,0.000000,0.000000,0.00,0,1,1.0142,-0.0307,0.0241,-1.6260,-4.2290,-6.0076,1.015
10.013,24.58,51.73,1000.29,0.000000,0.000000,0.00,0,1,1.0142,-0.0153,0.0366,-0.6870,-4.2977,-6.3130,1.015
10.019,24.58,51.73,1000.29,0.000000,0.000000,0.00,0,1,1.0071,-0.0236,0.0302,-0.1450,-4.1374,-6.7786,1.008
10.025,24.58,51.73,1000.29,0.000000,0.000000,0.00,0,1,1.0063,-0.0080,0.0422,1.2824,-4.4504,-6.7099,1.007
10.031,24.58,51.73,1000.29,0.000000,0.000000,0.00,0,1,1.0027,-0.0261,-0.0043,1.0229,-3.2290,-6.9466,1.003
10.037,24.59,51.73,1000.29,0.000000,0.000000,0.00,0,1,1.0068,0.0019,0.0156,0.5344,-2.8931,-7.3588,1.007
10.043,24.59,51.73,1000.29,0.000000,0.000000,0.00,0,1,1.0146,-0.0004,-0.0175,1.1756,-2.3053,-7.5878,1.015
10.049,24.59,51.73,1000.29,0.000000,0.000000,0.00,0,1,1.0166,0.0114,-0.0048,0.8015,-1.4351,-7.8931,1.017
10.125,24.59,51.73,1000.29,0.000000,0.000000,0.00,0,1,1.0234,0.0258,-0.0190,-4.0840,5.2901,-7.6870,1.024
10.131,24.59,51.73,1000.24,0.000000,0.000000,0.00,0,1,1.0112,0.0227,-0.0017,-4.0153,5.7710,-7.1679,1.011
10.137,24.57,51.73,1000.24,0.000000,0.000000,0.00,0,1,1.0056,0.0197,-0.0036,-4.1679,6.0840,-7.2672,1.006
10.143,24.57,51.73,1000.24,0.000000,0.000000,0.00,0,1,1.0010,0.0258,-0.0012,-4.0229,6.0153,-7.2290,1.001
10.149,24.57,51.73,1000.24,0.000000,0.000000,0.00,0,1,1.0007,0.0207,0.0119,-3.6031,6.0611,-6.6794,1.001
10.155,24.57,51.73,1000.24,0.000000,0.000000,0.00,0,1,0.9968,0.0263,0.0158,-3.5038,5.7557,-6.6107,0.997
10.161,24.57,51.73,1000.24,0.000000,0.000000,0.00,0,1,0.9937,0.0271,0.0090,-3.1603,5.6412,-6.1756,0.994
10.167,24.57,51.73,1000.24,0.000000,0.000000,0.00,0,1,0.9910,0.0317,0.0124,-2.9924,5.5878,-6.2214,0.992
10.173,24.57,51.73,1000.24,0.000000,0.000000,0.00,0,1,0.9983,0.0258,0.0102,-2.5420,5.2672,-6.1374,0.999
10.178,24.57,51.73,1000.24,0.000000,0.000000,0.00,0,1,0.9946,0.0200,0.0141,-2.0229,5.3282,-5.7252,0.995
10.217,24.57,51.73,1000.24,0.000000,0.000000,0.00,0,1,0.9973,0.0197,0.0156,-0.5496,2.4427,-4.5802,0.998
10.223,24.57,51.73,1000.24,0.000000,0.000000,0.00,0,1,1.0042,0.0234,0.0222,-0.3817,1.9008,-4.5420,1.005
10.229,24.57,51.73,1000.25,0.000000,0.000000,0.00,0,1,0.9954,0.0153,0.0532,-0.4809,1.1985,-4.8702,0.997
10.235,24.57,51.71,1000.25,0.000000,0.000000,0.00,0,1,1.0049,0.0334,0.0249,0.6336,0.1908,-4.3588,1.006
10.240,24.57,51.71,1000.25,0.000000,0.000000,0.00,0,1,1.0039,0.0117,0.0341,0.8092,-0.7557,-4.5191,1.005
10.247,24.57,51.71,1000.25,0.000000,0.000000,0.00,0,1,1.0034,0.0273,0.0180,0.5115,-1.5038,-4.3893,1.004
10.253,24.57,51.71,1000.25,0.000000,0.000000,0.00,0,1,1.0115,0.0305,0.0256,0.4046,-2.2137,-4.4809,1.012
10.258,24.57,51.71,1000.25,0.000000,0.000000,0.00,0,1,1.0078,0.0383,0.0229,-0.1603,-2.8702,-4.1298,1.009
10.264,24.57,51.71,1000.25,0.000000,0.000000,0.00,0,1,1.0044,0.0410,0.0314,-0.8015,-3.3130,-4.2595,1.006
10.270,24.57,51.71,1000.25,0.000000,0.000000,0.00,0,1,1.0066,0.0344,0.0205,-1.2443,-3.8244,-4.1221,1.007
10.334,24.57,51.71,1000.24,0.000000,0.000000,0.00,0,1,1.0129,0.0336,-0.0053,-0.3969,-7.7557,-5.9695,1.014
10.340,24.57,51.71,1000.24,0.000000,0.000000,0.00,0,1,1.0120,0.0568,-0.0402,-3.8931,-2.7405,-7.9771,1.014
10.413,24.57,51.71,1000.24,0.000000,0.000000,0.00,0,1,1.0068,0.0593,-0.0332,-4.4504,-2.1756,-7.8397,1.009
10.419,24.57,51.71,1000.24,0.000000,0.000000,0.00,0,1,1.0110,0.0527,-0.0349,-4.9618,-1.7481,-7.9237,1.013
10.425,24.59,51.70,1000.29,0.000000,0.000000,0.00,0,1,1.0110,0.0627,-0.0256,-5.3130,-1.3359,-7.8473,1.013
10.431,24.59,51.70,1000.29,0.000000,0.000000,0.00,0,1,1.0159,0.0566,-0.0395,-5.3511,-0.9008,-7.4504,1.018
10.437,24.59,51.70,1000.29,0.000000,0.000000,0.00,0,1,1.0193,0.0664,-0.0388,-5.7634,-0.1450,-7.0611,1.022
10.443,24.59,51.70,1000.29,0.000000,0.000000,0.00,0,1,1.0168,0.0571,-0.0229,-5.5496,0.5038,-6.5344,1.019
10.449,24.59,51.70,1000.29,0.000000,0.000000,0.00,0,1,1.0195,0.0571,-0.0297,-5.4351,1.2137,-5.8397,1.022
10.456,24.57,51.69,1000.27,0.000000,0.000000,0.00,0,1,0.9839,0.0495,0.0295,-0.2595,2.5878,0.4656,0.986
10.565,24.57,51.69,1000.27,0.000000,0.000000,0.00,0,1,1.0024,0.0542,0.0014,3.0076,-1.1985,3.6870,1.004
10.572,24.57,51.69,1000.27,0.000000,0.000000,0.00,0,1,0.9971,0.0512,0.0034,2.9008,-1.8092,4.3206,0.998
10.577,24.57,51.69,1000.27,0.000000,0.000000,0.00,0,1,0.9993,0.0505,-0.0031,2.7099,-2.0305,4.8015,1.001
10.583,24.57,51.69,1000.27,0.000000,0.000000,0.00,0,1,1.0015,0.0588,-0.0021,2.6641,-2.4198,5.0153,1.003
10.589,24.57,51.69,1000.27,0.000000,0.000000,0.00,0,1,1.0056,0.0498,0.0017,2.6794,-2.7634,5.5038,1.007
10.595,24.57,51.69,1000.27,0.000000,0.000000,0.00,0,1,1.0034,0.0432,0.0031,2.8397,-3.0840,5.6794,1.004
10.601,24.57,51.69,1000.27,0.000000,0.000000,0.00,0,1,1.0095,0.0439,0.0026,3.4504,-3.4504,5.9466,1.010
10.607,24.57,51.69,1000.27,0.000000,0.000000,0.00,0,1,1.0100,0.0483,-0.0056,3.8015,-3.6412,6.3053,1.011
10.613,24.57,51.69,1000.27,0.000000,0.000000,0.00,0,1,1.0129,0.0397,-0.0075,3.9160,-4.0382,6.3435,1.014
10.619,24.57,51.67,1000.31,0.000000,0.000000,0.00,0,1,1.0129,0.0302,-0.0153,4.1603,-3.9695,6.3130,1.014
10.666,24.59,51.67,1000.31,0.000000,0.000000,0.00,0,1,1.0051,0.0329,0.0073,5.0840,-5.1527,4.9924,1.006
10.672,24.59,51.67,1000.31,0.000000,0.000000,0.00,0,1,1.0029,0.0373,0.0166,5.3588,-5.7481,4.5954,1.004
10.678,24.59,51.67,1000.31,0.000000,0.000000,0.00,0,1,0.9954,0.0253,0.0146,5.2824,-6.4809,4.5191,0.996
10.684,24.59,51.67,1000.31,0.000000,0.000000,0.00,0,1,1.0000,0.0200,0.0207,5.6183,-7.0992,3.9771,1.000
10.690,24.59,51.67,1000.31,0.000000,0.000000,0.00,0,1,0.9971,0.0190,0.0224,6.0458,-8.0076,3.5038,0.998
10.696,24.59,51.67,1000.31,0.000000,0.000000,0.00,0,1,0.9963,0.0083,0.0048,6.8550,-8.8473,3.3130,0.996
10.702,24.59,51.67,1000.31,0.000000,0.000000,0.00,0,1,0.9995,0.0043,0.0127,7.6412,-9.7557,3.0992,1.000
10.708,24.59,51.67,1000.31,0.000000,0.000000,0.00,0,1,1.0024,0.0095,-0.0036,8.3893,-10.6031,3.0382,1.002
10.714,24.59,51.67,1000.31,0.000000,0.000000,0.00,0,1,1.0049,0.0073,-0.0073,9.0305,-11.4733,2.8626,1.005
10.719,24.60,51.70,1000.27,0.000000,0.000000,0.00,0,1,1.0090,0.0080,-0.0327,9.2214,-12.2290,1.9695,1.010
10.766,24.60,51.70,1000.27,0.000000,0.000000,0.00,0,1,1.0264,0.0668,-0.0688,-1.0687,-5.4656,0.4656,1.031
10.772,24.60,51.70,1000.27,0.000000,0.000000,0.00,0,1,1.0339,0.0476,-0.0820,-1.7634,-4.1985,-0.3053,1.038
10.778,24.60,51.70,1000.27,0.000000,0.000000,0.00,0,1,1.0310,0.0668,-0.0761,-2.4962,-3.7481,-0.2366,1.036
10.784,24.60,51.70,1000.27,0.000000,0.000000,0.00,0,1,1.0339,0.0634,-0.0871,-3.7557,-2.5649,-0.9008,1.040
10.790,24.60,51.70,1000.27,0.000000,0.000000,0.00,0,1,1.0356,0.0495,-0.0959,-4.7786,-1.6183,-0.7099,1.041
10.796,24.60,51.70,1000.27,0.000000,0.000000,0.00,0,1,1.0288,0.0461,-0.0737,-6.0153,-0.3206,-1.5649,1.032
10.802,24.60,51.70,1000.27,0.000000,0.000000,0.00,0,1,1.0305,0.0478,-0.0739,-7.1374,0.6870,-1.6183,1.034
10.808,24.60,51.70,1000.27,0.000000,0.000000,0.00,0,1,1.0273,0.0412,-0.0651,-7.6031,1.7252,-2.0153,1.030
10.814,24.60,51.68,1000.30,0.000000,0.000000,0.00,0,1,1.0232,0.0329,-0.0673,-7.7023,2.8550,-2.2595,1.026
10.820,24.60,51.68,1000.30,0.000000,0.000000,0.00,0,1,1.0281,0.0275,-0.0615,-7.7405,3.7939,-2.7634,1.030
10.860,24.60,51.68,1000.30,0.000000,0.000000,0.00,0,1,1.0129,0.0310,-0.0280,-2.7023,8.9771,-4.6794,1.014
10.866,24.60,51.68,1000.30,0.000000,0.000000,0.00,0,1,1.0090,0.0246,0.0129,-2.5115,10.0229,-4.7176,1.009
10.872,24.60,51.68,1000.30,0.000000,0.000000,0.00,0,1,1.0134,0.0068,-0.0061,-1.2672,9.9389,-5.0687,1.013
10.878,24.60,51.68,1000.30,0.000000,0.000000,0.00,0,1,1.0100,0.0285,-0.0068,-0.4580,10.8168,-5.0153,1.010
10.884,24.60,51.67,1000.28,0.000000,0.000000,0.00,0,1,0.9956,0.0512,-0.0246,5.3817,4.2977,-4.1298,0.997
10.959,24.60,51.67,1000.28,0.000000,0.000000,0.00,0,1,0.9985,0.0407,-0.0085,4.8550,4.0687,-4.1985,0.999
10.965,24.60,51.67,1000.28,0.000000,0.000000,0.00,0,1,1.0012,0.0590,-0.0210,4.5115,3.6260,-3.7634,1.003
10.971,24.60,51.67,1000.28,0.000000,0.000000,0.00,0,1,1.0049,0.0532,-0.0173,4.3053,3.4427,-3.4962,1.006
10.977,24.60,51.67,1000.28,0.000000,0.000000,0.00,0,1,1.0049,0.0371,0.0236,4.2748,2.3588,-3.5954,1.006
10.983,24.60,51.67,1000.28,0.000000,0.000000,0.00,0,1,1.0149,0.1062,-0.0178,3.8015,2.5573,-2.4656,1.021
11.102,24.61,51.68,1000.28,0.000000,0.000000,0.00,0,1,1.0139,0.0739,-0.0752,-1.9695,1.0534,-4.2672,1.019
11.108,24.61,51.66,1000.28,0.000000,0.000000,0.00,0,1,1.0164,0.0817,-0.0686,-2.1603,1.6870,-4.1298,1.022
11.114,24.61,51.66,1000.28,0.000000,0.000000,0.00,0,1,1.0188,0.0737,-0.0632,-2.4427,2.3664,-3.8092,1.023
11.120,24.61,51.66,1000.28,0.000000,0.000000,0.00,0,1,1.0188,0.0771,-0.0542,-3.0916,3.0611,-3.7710,1.023
11.125,24.61,51.66,1000.28,0.000000,0.000000,0.00,0,1,1.0137,0.0810,-0.0451,-3.7405,3.7710,-3.4198,1.018
11.131,24.61,51.66,1000.28,0.000000,0.000000,0.00,0,1,1.0117,0.0808,-0.0441,-4.1374,4.3740,-3.1221,1.016
11.137,24.61,51.66,1000.28,0.000000,0.000000,0.00,0,1,1.0129,0.0773,-0.0415,-4.3053,4.8092,-2.2824,1.017
11.143,24.61,51.66,1000.28,0.000000,0.000000,0.00,0,1,1.0044,0.0732,-0.0402,-4.2061,5.3664,-1.8092,1.008
11.149,24.61,51.66,1000.28,0.000000,0.000000,0.00,0,1,1.0044,0.0734,-0.0275,-3.9695,5.6107,-1.2748,1.007
11.155,24.61,51.66,1000.28,0.000000,0.000000,0.00,0,1,1.0027,0.0747,-0.0317,-3.5725,5.6489,-0.3511,1.006
11.196,24.61,51.66,1000.28,0.000000,0.000000,0.00,0,1,1.0032,0.0534,-0.0083,0.8244,5.8702,6.7634,1.005
11.202,24.61,51.66,1000.28,0.000000,0.000000,0.00,0,1,1.0044,0.0461,-0.0026,1.9466,5.9084,7.8931,1.005
11.208,24.57,51.63,1000.24,0.000000,0.000000,0.00,0,1,0.9976,0.0603,0.0175,2.8015,5.4504,8.9771,1.000
11.214,24.57,51.63,1000.24,0.000000,0.000000,0.00,0,1,0.9961,0.0539,0.0161,3.3893,5.0229,9.5267,0.998
11.220,24.57,51.63,1000.24,0.000000,0.000000,0.00,0,1,0.9929,0.0568,0.0190,4.1374,4.7023,10.8244,0.995
11.226,24.57,51.63,1000.24,0.000000,0.000000,0.00,0,1,0.9856,0.0485,0.0192,4.8550,4.2901,11.4809,0.987
11.232,24.57,51.63,1000.24,0.000000,0.000000,0.00,0,1,0.9897,0.0454,0.0244,5.7099,3.8702,12.1756,0.991
11.238,24.57,51.63,1000.24,0.000000,0.000000,0.00,0,1,0.9910,0.0441,0.0153,6.4733,3.2901,12.8092,0.992
11.244,24.57,51.64,1000.24,0.000000,0.000000,0.00,0,1,1.0281,0.0305,-0.0835,8.5115,3.3435,12.3893,1.032
11.387,24.57,51.64,1000.24,0.000000,0.000000,0.00,0,1,1.0215,0.0224,-0.0693,7.5725,4.8550,11.6565,1.024
11.408,24.61,51.61,1000.29,0.000000,0.000000,0.00,0,1,1.0056,-0.0031,0.0039,6.8702,8.8855,6.0687,1.006
11.483,24.61,51.61,1000.29,0.000000,0.000000,0.00,0,1,1.0017,-0.0063,0.0058,6.9313,8.4046,5.8244,1.002
11.489,24.61,51.61,1000.26,0.000000,0.000000,0.00,0,1,1.0049,0.0017,-0.0139,7.5649,3.6641,5.4733,1.005
11.564,24.60,51.61,1000.26,0.000000,0.000000,0.00,0,1,1.0063,0.0014,-0.0441,6.9847,4.1756,5.6718,1.007
11.570,24.60,51.61,1000.26,0.000000,0.000000,0.00,0,1,1.0073,-0.0073,-0.0180,6.1450,4.1069,5.2977,1.008
11.576,24.60,51.61,1000.26,0.000000,0.000000,0.00,0,1,1.0037,0.0078,-0.0178,6.2672,4.3359,6.1603,1.004
11.582,24.60,51.61,1000.26,0.000000,0.000000,0.00,0,1,1.0083,-0.0014,-0.0117,6.6183,4.1908,6.1374,1.008
11.588,24.60,51.61,1000.26,0.000000,0.000000,0.00,0,1,1.0027,-0.0141,-0.0053,6.9924,4.1374,6.5344,1.003
11.594,24.60,51.62,1000.28,0.000000,0.000000,0.00,0,1,1.0139,-0.0097,-0.0100,8.1832,3.6565,6.7786,1.014
11.600,24.61,51.62,1000.28,0.000000,0.000000,0.00,0,1,1.0078,-0.0148,-0.0078,9.0611,3.5344,6.7863,1.008
11.656,24.61,51.62,1000.28,0.000000,0.000000,0.00,0,1,1.0034,-0.0183,0.0053,8.6183,3.3664,8.6489,1.004
11.662,24.61,51.62,1000.28,0.000000,0.000000,0.00,0,1,1.0166,-0.0224,-0.0012,8.8092,3.2137,8.8550,1.017
11.668,24.61,51.62,1000.28,0.000000,0.000000,0.00,0,1,1.0129,-0.0249,0.0097,8.7786,2.9084,8.9237,1.013
11.674,24.61,51.62,1000.28,0.000000,0.000000,0.00,0,1,1.0161,-0.0295,0.0058,8.9466,2.7176,9.1374,1.017
11.680,24.61,51.62,1000.28,0.000000,0.000000,0.00,0,1,1.0095,-0.0356,0.0251,9.2977,2.3817,9.5267,1.010
11.686,24.61,51.62,1000.28,0.000000,0.000000,0.00,0,1,1.0144,-0.0346,0.0336,10.1679,1.9542,9.9771,1.016
11.692,24.60,51.65,1000.26,0.000000,0.000000,0.00,0,1,1.0098,-0.0407,0.0317,11.5344,1.3053,9.9618,1.011
11.698,24.60,51.65,1000.26,0.000000,0.000000,0.00,0,1,1.0037,-0.0446,0.0349,12.9771,0.4962,10.4427,1.005
11.704,24.60,51.65,1000.26,0.000000,0.000000,0.00,0,1,1.0061,-0.0456,0.0378,13.9466,0.2595,10.6718,1.008
11.710,24.60,51.65,1000.26,0.000000,0.000000,0.00,0,1,1.0117,-0.0422,0.0212,14.5725,-0.1221,10.7099,1.013
11.845,24.59,51.61,1000.24,0.000000,0.000000,0.00,0,1,1.0066,-0.0229,0.0263,3.0458,-0.3740,1.2519,1.007
11.851,24.59,51.61,1000.24,0.000000,0.000000,0.00,0,1,0.9968,-0.0393,0.0144,2.4580,-1.3053,1.4275,0.998
11.857,24.59,51.61,1000.24,0.000000,0.000000,0.00,0,1,1.0029,-0.0405,0.0153,1.8779,-2.3817,1.5115,1.004
11.863,24.59,51.61,1000.24,0.000000,0.000000,0.00,0,1,1.0073,-0.0429,0.0065,1.3740,-3.2672,1.5038,1.008
11.869,24.59,51.61,1000.24,0.000000,0.000000,0.00,0,1,1.0125,-0.0485,-0.0026,0.9313,-4.0992,1.5573,1.014
11.875,24.59,51.61,1000.24,0.000000,0.000000,0.00,0,1,1.0142,-0.0512,-0.0153,0.6947,-4.7634,1.1450,1.016
11.881,24.59,51.61,1000.24,0.000000,0.000000,0.00,0,1,1.0142,-0.0505,-0.0300,0.6947,-5.7176,0.9695,1.016
11.887,24.61,51.54,1000.27,0.000000,0.000000,0.00,0,1,1.0212,-0.0549,-0.0412,0.8855,-6.1069,0.5420,1.024
11.893,24.61,51.54,1000.27,0.000000,0.000000,0.00,0,1,1.0261,-0.0490,-0.0400,0.9084,-6.5267,-0.3359,1.028
11.899,24.61,51.54,1000.27,0.000000,0.000000,0.00,0,1,1.0195,-0.0524,-0.0390,1.1679,-6.8931,-0.9924,1.022
11.957,24.61,51.54,1000.27,0.000000,0.000000,0.00,0,1,1.0000,-0.0156,-0.0192,2.1527,-3.6641,-6.7099,1.000
11.963,24.61,51.54,1000.27,0.000000,0.000000,0.00,0,1,1.0015,-0.0241,-0.0124,2.2824,-3.5573,-6.9695,1.002
11.969,24.61,51.54,1000.27,0.000000,0.000000,0.00,0,1,1.0024,-0.0195,-0.0065,2.6031,-3.3130,-6.7557,1.003
11.975,24.61,51.54,1000.27,0.000000,0.000000,0.00,0,1,1.0107,-0.0253,-0.0078,3.0382,-3.0916,-6.8702,1.011
11.981,24.61,51.54,1000.27,0.000000,0.000000,0.00,0,1,1.0132,-0.0195,-0.0090,2.9160,-2.6107,-6.2748,1.013
11.987,24.60,51.58,1000.30,0.000000,0.000000,0.00,0,1,1.0020,-0.0158,-0.0078,2.8321,-2.0763,-6.1832,1.002
11.992,24.60,51.58,1000.30,0.000000,0.000000,0.00,0,1,1.0093,-0.0168,-0.0100,2.4122,-1.8550,-5.6565,1.009
11.998,24.60,51.58,1000.30,0.000000,0.000000,0.00,0,1,0.9976,-0.0136,-0.0009,2.4122,-1.3053,-5.0687,0.998
12.005,24.60,51.58,1000.24,0.000000,0.000000,0.00,0,1,1.1072,0.0632,-0.1890,-4.9160,25.0992,3.7863,1.125
12.148,24.60,51.58,1000.24,0.000000,0.000000,0.00,0,1,1.0020,0.0922,-0.0593,-6.2061,25.7710,2.5573,1.008
12.170,24.60,51.56,1000.27,0.000000,0.000000,0.00,0,1,0.9805,-0.0539,0.1333,7.3282,31.3817,16.6641,0.991
12.247,24.61,51.56,1000.27,0.000000,0.000000,0.00,0,1,0.9875,-0.0366,0.1316,7.4962,29.1298,17.7023,0.997
12.253,24.61,51.56,1000.27,0.000000,0.000000,0.00,0,1,0.9685,-0.0444,0.1584,7.7710,26.4427,17.7023,0.982
12.259,24.61,51.56,1000.27,0.000000,0.000000,0.00,0,1,0.9580,-0.0832,0.1750,6.0000,23.2824,17.3588,0.977
12.265,24.61,51.56,1000.27,0.000000,0.000000,0.00,0,1,0.9338,-0.0769,0.1809,4.7481,19.9008,16.4656,0.954
12.270,24.61,51.56,1000.27,0.000000,0.000000,0.00,0,1,0.9480,-0.0949,0.2129,3.9847,16.0763,15.5496,0.976
12.276,24.62,51.62,1000.27,0.000000,0.000000,0.00,0,1,0.9287,-0.0898,0.2124,2.9389,12.0076,13.9542,0.957
12.282,24.62,51.62,1000.27,0.000000,0.000000,0.00,0,1,0.9438,-0.1025,0.2017,3.2214,7.6489,12.5649,0.971
12.288,24.62,51.62,1000.27,0.000000,0.000000,0.00,0,1,0.9375,-0.1199,0.2136,3.1298,3.0992,10.4580,0.969
12.294,24.62,51.62,1000.27,0.000000,0.000000,0.00,0,1,0.9470,-0.1162,0.1885,1.9924,-0.6489,8.4733,0.973
12.407,24.60,51.58,1000.26,0.000000,0.000000,0.00,0,1,1.0125,-0.0031,-0.0009,-0.2748,-32.9847,-3.4351,1.012
12.413,24.60,51.58,1000.26,0.000000,0.000000,0.00,0,1,1.0200,-0.0302,-0.0390,-0.4656,-32.7328,-3.8702,1.021
12.418,24.60,51.58,1000.24,0.000000,0.000000,0.00,0,1,1.0281,-0.0227,-0.1123,-4.1679,-9.8092,-4.4962,1.034
12.492,24.61,51.57,1000.27,0.000000,0.000000,0.00,0,1,1.0330,-0.0227,-0.0996,-4.3282,-7.2519,-4.3664,1.038
12.498,24.61,51.57,1000.27,0.000000,0.000000,0.00,0,1,1.0320,-0.0195,-0.0888,-3.8092,-4.9389,-4.2137,1.036
12.504,24.61,51.57,1000.27,0.000000,0.000000,0.00,0,1,1.0276,-0.0388,-0.0720,-3.5802,-3.1450,-3.9618,1.031
12.510,24.61,51.57,1000.27,0.000000,0.000000,0.00,0,1,1.0320,-0.0241,-0.0654,-2.8473,-1.2748,-3.7405,1.034
12.516,24.61,51.57,1000.27,0.000000,0.000000,0.00,0,1,1.0264,-0.0293,-0.0422,-2.1985,0.3893,-3.2824,1.028
12.522,24.61,51.57,1000.27,0.000000,0.000000,0.00,0,1,1.0244,-0.0271,-0.0449,-1.2901,1.9466,-2.8473,1.026
12.528,24.61,51.57,1000.27,0.000000,0.000000,0.00,0,1,1.0195,-0.0307,-0.0212,-0.4504,3.1069,-2.1298,1.020
12.549,24.61,51.57,1000.27,0.000000,0.000000,0.00,0,1,1.0195,-0.0749,-0.0334,14.3969,3.0000,4.4504,1.023
12.623,24.61,51.55,1000.27,0.000000,0.000000,0.00,0,1,1.0366,-0.0690,-0.0302,14.7786,2.7405,4.4275,1.039
12.629,24.61,51.55,1000.27,0.000000,0.000000,0.00,0,1,1.0398,-0.0556,-0.0380,14.3588,3.2061,4.2977,1.042
12.635,24.61,51.55,1000.27,0.000000,0.000000,0.00,0,1,1.0352,-0.0544,-0.0395,13.3893,3.5878,4.1679,1.037
12.641,24.61,51.55,1000.27,0.000000,0.000000,0.00,0,1,1.0342,-0.0527,-0.0351,12.4046,4.0000,4.0229,1.036
12.647,24.61,51.55,1000.27,0.000000,0.000000,0.00,0,1,1.0315,-0.0537,-0.0395,11.7710,4.5038,3.7786,1.034
12.653,24.61,51.55,1000.27,0.000000,0.000000,0.00,0,1,1.0242,-0.0393,-0.0363,11.3359,4.4504,3.2290,1.026
12.659,24.61,51.55,1000.27,0.000000,0.000000,0.00,0,1,1.0144,-0.0437,-0.0180,10.9466,4.3053,2.8168,1.016
12.665,24.61,51.55,1000.29,0.000000,0.000000,0.00,0,1,1.0098,-0.0439,-0.0266,10.4275,4.2366,1.8931,1.011
12.671,24.62,51.56,1000.29,0.000000,0.000000,0.00,0,1,1.0132,-0.0415,-0.0178,9.6947,3.9160,1.3511,1.014
12.717,24.62,51.56,1000.29,0.000000,0.000000,0.00,0,1,0.9978,-0.0190,-0.0605,6.6489,0.9008,-3.9160,1.000
12.723,24.62,51.56,1000.29,0.000000,0.000000,0.00,0,1,0.9897,-0.0188,-0.0620,5.1985,1.2061,-4.2748,0.992
12.729,24.62,51.56,1000.29,0.000000,0.000000,0.00,0,1,0.9905,-0.0195,-0.0654,3.7863,1.2366,-4.3588,0.993
12.735,24.62,51.56,1000.29,0.000000,0.000000,0.00,0,1,0.9902,-0.0156,-0.0708,2.5649,1.5038,-4.5649,0.993
12.741,24.62,51.56,1000.29,0.000000,0.000000,0.00,0,1,0.9929,-0.0107,-0.0620,1.4275,1.5725,-4.3740,0.995
12.747,24.62,51.56,1000.29,0.000000,0.000000,0.00,0,1,0.9951,-0.0185,-0.0671,0.9008,1.7023,-4.3282,0.998
12.752,24.62,51.56,1000.29,0.000000,0.000000,0.00,0,1,1.0024,-0.0197,-0.0554,0.5115,1.6260,-3.5802,1.004
12.758,24.62,51.56,1000.29,0.000000,0.000000,0.00,0,1,1.0044,-0.0253,-0.0422,0.6183,0.9924,-3.1908,1.006
12.765,24.61,51.51,1000.24,0.000000,0.000000,0.00,0,1,1.0054,-0.0244,-0.0402,0.7405,0.8244,-2.4733,1.006
12.771,24.61,51.51,1000.24,0.000000,0.000000,0.00,0,1,1.0100,-0.0219,-0.0224,1.0916,0.3740,-2.2061,1.010
12.811,24.61,51.51,1000.24,0.000000,0.000000,0.00,0,1,0.9980,-0.0227,-0.0256,2.9847,-1.3282,2.4733,0.999
12.817,24.61,51.51,1000.24,0.000000,0.000000,0.00,0,1,1.0020,-0.0195,-0.0168,2.9847,-1.2290,3.4504,1.002
12.823,24.61,51.51,1000.24,0.000000,0.000000,0.00,0,1,0.9990,-0.0366,-0.0048,3.3511,-1.6107,3.8015,1.000
12.829,24.61,51.51,1000.24,0.000000,0.000000,0.00,0,1,1.0020,-0.0300,-0.0087,4.0992,-1.8855,4.3206,1.002
12.835,24.61,51.51,1000.24,0.000000,0.000000,0.00,0,1,1.0063,-0.0351,-0.0107,4.2595,-1.9542,5.0000,1.007
12.841,24.61,51.51,1000.24,0.000000,0.000000,0.00,0,1,1.0142,-0.0427,-0.0083,3.8473,-2.0076,5.4656,1.015
12.847,24.61,51.51,1000.24,0.000000,0.000000,0.00,0,1,1.0195,-0.0451,-0.0136,3.9618,-1.9847,5.7481,1.021
12.853,24.61,51.51,1000.24,0.000000,0.000000,0.00,0,1,1.0161,-0.0537,-0.0214,4.0458,-1.7710,6.2290,1.018
12.859,24.61,51.51,1000.25,0.000000,0.000000,0.00,0,1,1.0276,-0.0490,-0.0317,4.4504,-1.6183,6.3969,1.029
12.865,24.61,51.56,1000.25,0.000000,0.000000,0.00,0,1,1.0178,-0.0573,-0.0476,4.8702,-1.1298,6.7099,1.021
13.015,24.62,51.54,1000.30,0.000000,0.000000,0.00,0,1,1.0056,-0.0839,-0.0085,5.0458,-4.4809,6.8855,1.009
13.021,24.62,51.54,1000.30,0.000000,0.000000,0.00,0,1,1.0029,-0.0817,-0.0141,4.3664,-5.6489,6.1069,1.006
13.027,24.62,51.54,1000.30,0.000000,0.000000,0.00,0,1,1.0037,-0.0998,-0.0297,4.0992,-6.8244,5.4046,1.009
13.033,24.62,51.54,1000.30,0.000000,0.000000,0.00,0,1,1.0088,-0.0932,-0.0463,4.4122,-7.8550,4.2977,1.014
13.039,24.62,51.54,1000.30,0.000000,0.000000,0.00,0,1,1.0103,-0.0961,-0.0441,4.3893,-8.7481,3.2901,1.016
13.045,24.62,51.54,1000.30,0.000000,0.000000,0.00,0,1,1.0142,-0.0898,-0.0412,4.2061,-9.3282,2.2901,1.019
13.051,24.62,51.54,1000.30,0.000000,0.000000,0.00,0,1,1.0103,-0.0844,-0.0468,3.4122,-9.8168,1.4122,1.015
13.057,24.62,51.57,1000.29,0.000000,0.000000,0.00,0,1,1.0132,-0.0788,-0.0405,2.7481,-10.0229,0.3053,1.017
13.063,24.62,51.57,1000.29,0.000000,0.000000,0.00,0,1,1.0208,-0.1743,-0.3438,-3.5038,-8.9237,-8.9924,1.091
13.138,24.62,51.57,1000.29,0.000000,0.000000,0.00,0,1,1.0894,0.0419,-0.1980,-5.8397,-3.2901,-2.3130,1.108
13.316,24.62,51.52,1000.27,0.000000,0.000000,0.00,0,1,1.0073,-0.0991,-0.0319,7.1756,8.2061,1.8321,1.013
13.322,24.62,51.52,1000.27,0.000000,0.000000,0.00,0,1,1.0103,-0.0749,-0.0212,7.4656,7.9389,0.4351,1.013
13.328,24.62,51.52,1000.27,0.000000,0.000000,0.00,0,1,1.0151,-0.0783,-0.0327,6.8168,8.2595,-0.6718,1.019
13.334,24.62,51.52,1000.27,0.000000,0.000000,0.00,0,1,1.0234,-0.0705,-0.0520,7.0611,7.8855,-1.6870,1.027
13.340,24.62,51.52,1000.27,0.000000,0.000000,0.00,0,1,1.0234,-0.0737,-0.0473,6.5038,7.6718,-2.9313,1.027
13.346,24.62,51.52,1000.29,0.000000,0.000000,0.00,0,1,1.0251,-0.0676,-0.0400,5.3740,7.6718,-3.5115,1.028
13.352,24.62,51.53,1000.30,0.000000,0.000000,0.00,0,1,1.0225,-0.0600,-0.0417,4.6641,7.6260,-4.5954,1.025
13.358,24.62,51.53,1000.30,0.000000,0.000000,0.00,0,1,1.0161,-0.0717,-0.0468,3.6412,7.4198,-5.5344,1.020
13.364,24.62,51.53,1000.30,0.000000,0.000000,0.00,0,1,1.0154,-0.0610,-0.0285,3.1145,6.8779,-5.9008,1.018
13.370,24.62,51.53,1000.30,0.000000,0.000000,0.00,0,1,1.0112,-0.0835,-0.0410,2.9695,6.1450,-6.7252,1.016
13.495,24.60,51.51,1000.24,0.000000,0.000000,0.00,0,1,1.0190,-0.0344,-0.0610,0.4275,7.8397,1.4580,1.021
13.501,24.60,51.51,1000.24,0.000000,0.000000,0.00,0,1,1.0063,-0.0290,-0.0698,0.6183,9.0153,2.2824,1.009
13.507,24.60,51.51,1000.24,0.000000,0.000000,0.00,0,1,0.9985,-0.0310,-0.0432,0.4275,10.3282,2.9618,1.000
13.513,24.60,51.51,1000.24,0.000000,0.000000,0.00,0,1,1.0042,-0.0590,-0.0625,0.4656,12.0916,2.4504,1.008
13.519,24.60,51.51,1000.24,0.000000,0.000000,0.00,0,1,1.0049,-0.0217,-0.0451,-0.0229,13.3969,4.0000,1.006
13.525,24.60,51.51,1000.24,0.000000,0.000000,0.00,0,1,1.0098,-0.0581,-0.0590,-0.3817,15.2137,4.2443,1.013
13.531,24.60,51.51,1000.24,0.000000,0.000000,0.00,0,1,1.0225,-0.0305,-0.0417,-0.8779,16.7634,5.0992,1.024
13.537,24.60,51.51,1000.24,0.000000,0.000000,0.00,0,1,1.0205,-0.0705,-0.0815,-1.7710,18.7863,5.6412,1.026
13.543,24.60,51.45,1000.27,0.000000,0.000000,0.00,0,1,1.0295,-0.0390,-0.0788,-1.0458,19.6641,6.6565,1.033
13.549,24.63,51.45,1000.27,0.000000,0.000000,0.00,0,1,1.0232,-0.0410,-0.0407,-1.5115,21.0229,6.7939,1.025
13.606,24.63,51.45,1000.27,0.000000,0.000000,0.00,0,1,0.9565,-0.0888,0.1343,-1.2366,24.3740,6.9542,0.970
13.612,24.63,51.45,1000.27,0.000000,0.000000,0.00,0,1,0.9827,-0.0898,0.0559,-2.3130,24.3588,6.7786,0.988
13.618,24.63,51.45,1000.27,0.000000,0.000000,0.00,0,1,0.9810,-0.0700,0.1204,-1.9466,22.5191,5.1145,0.991
13.624,24.63,51.45,1000.27,0.000000,0.000000,0.00,0,1,0.9797,-0.1326,0.1357,-1.9695,22.1679,5.8779,0.998
13.630,24.63,51.45,1000.27,0.000000,0.000000,0.00,0,1,0.9580,-0.0922,0.0918,-0.8092,19.4427,4.4580,0.967
13.636,24.63,51.45,1000.27,0.000000,0.000000,0.00,0,1,0.9617,-0.1260,0.1243,0.0381,17.7710,3.8779,0.978
13.642,24.62,51.45,1000.27,0.000000,0.000000,0.00,0,1,0.9626,-0.1240,0.0620,0.9008,16.2137,3.8397,0.973
13.648,24.62,51.45,1000.27,0.000000,0.000000,0.00,0,1,0.9753,-0.1299,0.1135,2.0229,13.7710,2.7863,0.990
13.654,24.62,51.45,1000.27,0.000000,0.000000,0.00,0,1,0.9888,-0.1331,0.0874,3.0229,12.1756,2.6183,1.002
13.660,24.62,51.45,1000.27,0.000000,0.000000,0.00,0,1,0.9980,-0.1248,0.0915,3.9008,9.5420,1.5191,1.010
13.761,24.60,51.49,1000.24,0.000000,0.000000,0.00,0,1,0.9871,-0.0488,-0.0219,6.3588,-7.8092,-6.8626,0.989
13.767,24.60,51.49,1000.24,0.000000,0.000000,0.00,0,1,0.9983,-0.0161,-0.0090,7.1069,-7.1679,-6.0229,0.998
13.773,24.60,51.49,1000.24,0.000000,0.000000,0.00,0,1,0.9910,-0.0380,-0.0097,7.7481,-6.1527,-5.6412,0.992
13.779,24.60,51.49,1000.24,0.000000,0.000000,0.00,0,1,0.9966,-0.0356,0.0024,7.6336,-5.4198,-5.1603,0.997
13.785,24.60,51.49,1000.24,0.000000,0.000000,0.00,0,1,0.9951,-0.0166,0.0021,7.8168,-4.7176,-4.6412,0.995
13.791,24.60,51.49,1000.24,0.000000,0.000000,0.00,0,1,0.9946,-0.0200,-0.0031,8.0763,-3.9695,-3.4427,0.995
13.797,24.60,51.49,1000.24,0.000000,0.000000,0.00,0,1,0.9824,-0.0481,-0.0327,7.6107,-3.1908,-3.7481,0.984
13.803,24.60,51.49,1000.24,0.000000,0.000000,0.00,0,1,0.9880,-0.0173,-0.0224,5.4962,-2.3435,-2.3282,0.988
13.809,24.60,51.49,1000.24,0.000000,0.000000,0.00,0,1,1.0088,-0.0146,-0.0105,4.5191,-1.4275,-1.6794,1.009
13.815,24.60,51.49,1000.24,0.000000,0.000000,0.00,0,1,1.0024,-0.0258,-0.0278,3.4504,-0.8015,-0.3588,1.003
13.852,24.61,51.50,1000.26,0.000000,0.000000,0.00,0,1,1.0378,-0.0988,-0.0629,1.0763,2.1603,2.6336,1.044
13.858,24.61,51.50,1000.26,0.000000,0.000000,0.00,0,1,1.0151,-0.0686,-0.0109,1.2824,2.3511,2.2519,1.018
13.864,24.61,51.50,1000.26,0.000000,0.000000,0.00,0,1,1.0029,-0.0583,-0.0012,-0.0992,3.4046,2.1527,1.005
13.870,24.61,51.50,1000.26,0.000000,0.000000,0.00,0,1,1.0293,-0.0529,-0.0058,1.6412,3.5802,2.4504,1.031
13.876,24.61,51.50,1000.26,0.000000,0.000000,0.00,0,1,1.0012,-0.0842,0.0075,1.8321,4.0229,1.4580,1.005
13.882,24.61,51.50,1000.26,0.000000,0.000000,0.00,0,1,1.0024,-0.0600,0.0175,1.8397,4.3282,1.5878,1.004
13.888,24.61,51.50,1000.26,0.000000,0.000000,0.00,0,1,1.0010,-0.0678,0.0136,2.3359,4.6641,1.0153,1.003
13.894,24.61,51.50,1000.26,0.000000,0.000000,0.00,0,1,0.9966,-0.0676,0.0178,2.4351,5.1527,0.9618,0.999
13.900,24.61,51.50,1000.26,0.000000,0.000000,0.00,0,1,1.0088,-0.0605,0.0112,2.6641,5.4122,0.3511,1.011
13.906,24.61,51.50,1000.26,0.000000,0.000000,0.00,0,1,1.0154,-0.0585,0.0092,2.6260,5.2977,-0.1832,1.017
14.035,24.64,51.48,1000.30,0.000000,0.000000,0.00,0,1,0.9993,-0.0654,0.0627,5.8626,-1.8855,2.2443,1.003
14.041,24.64,51.48,1000.30,0.000000,0.000000,0.00,0,1,0.9995,-0.0732,0.0481,5.9084,-2.8626,2.4046,1.003
14.047,24.64,51.48,1000.30,0.000000,0.000000,0.00,0,1,1.0056,-0.0520,0.0476,6.3817,-3.4885,2.6412,1.008
14.053,24.64,51.48,1000.30,0.000000,0.000000,0.00,0,1,1.0037,-0.0761,0.0214,5.9313,-4.7023,2.8931,1.007
14.059,24.64,51.48,1000.30,0.000000,0.000000,0.00,0,1,1.0110,-0.0598,0.0266,5.7710,-5.1908,3.1908,1.013
14.065,24.64,51.48,1000.30,0.000000,0.000000,0.00,0,1,1.0120,-0.0654,0.0034,6.0763,-5.7863,2.6489,1.014
14.071,24.64,51.48,1000.30,0.000000,0.000000,0.00,0,1,1.0237,-0.0354,0.0166,6.2595,-6.6107,2.5878,1.024
14.077,24.64,51.48,1000.30,0.000000,0.000000,0.00,0,1,1.0295,-0.0710,-0.0153,6.4046,-6.7634,2.3969,1.032
14.083,24.64,51.48,1000.30,0.000000,0.000000,0.00,0,1,1.0276,-0.0515,-0.0024,5.7099,-6.3282,2.6412,1.029
14.089,24.64,51.48,1000.30,0.000000,0.000000,0.00,0,1,1.0305,-0.0483,-0.0266,5.2366,-6.4198,1.9771,1.032
14.235,24.64,51.47,1000.29,0.000000,0.000000,0.00,0,1,0.9761,-0.0769,0.0380,4.2672,0.3817,2.3511,0.980
14.310,24.64,51.47,1000.29,0.000000,0.000000,0.00,0,1,0.9863,-0.0673,0.0195,4.8321,-0.1374,2.8015,0.989
14.316,24.64,51.47,1000.29,0.000000,0.000000,0.00,0,1,0.9980,-0.0710,0.0034,4.8855,-0.8626,3.1985,1.001
14.322,24.64,51.46,1000.28,0.000000,0.000000,0.00,0,1,1.0071,-0.0664,0.0063,4.3740,-0.8855,3.1985,1.009
14.328,24.63,51.46,1000.28,0.000000,0.000000,0.00,0,1,1.0032,-0.0754,-0.0275,3.2519,-0.8397,3.0000,1.006
14.334,24.63,51.46,1000.28,0.000000,0.000000,0.00,0,1,1.0234,-0.0898,-0.0019,3.2290,-1.5802,3.5267,1.027
14.340,24.63,51.46,1000.28,0.000000,0.000000,0.00,0,1,1.0100,-0.0432,0.0244,3.1832,-2.2366,3.1527,1.011
14.346,24.63,51.46,1000.28,0.000000,0.000000,0.00,0,1,1.0112,-0.0754,0.0454,3.7710,-3.3359,3.1527,1.015
14.352,24.63,51.46,1000.28,0.000000,0.000000,0.00,0,1,1.0205,-0.0747,0.0317,4.6183,-3.8321,3.4275,1.024
14.358,24.63,51.46,1000.28,0.000000,0.000000,0.00,0,1,1.0149,-0.0661,0.0419,4.8168,-4.8855,3.1527,1.018
14.473,24.60,51.47,1000.23,0.000000,0.000000,0.00,0,1,1.0247,-0.0312,-0.0564,1.4046,-7.2748,-7.0687,1.027
14.479,24.60,51.47,1000.21,0.000000,0.000000,0.00,0,1,1.0469,-0.0739,-0.0275,-3.8244,2.1221,-1.3893,1.050
14.552,24.64,51.46,1000.27,0.000000,0.000000,0.00,0,1,0.9641,0.0048,0.0310,-7.3206,4.8779,-1.6870,0.965
14.558,24.64,51.46,1000.27,0.000000,0.000000,0.00,0,1,0.9858,-0.0002,-0.0241,-2.3664,3.8626,-1.0229,0.986
14.564,24.64,51.46,1000.27,0.000000,0.000000,0.00,0,1,0.9746,-0.0908,-0.0930,-1.1374,6.6412,-0.7939,0.983
14.570,24.64,51.46,1000.27,0.000000,0.000000,0.00,0,1,0.9453,-0.0505,-0.0141,-3.0153,5.9695,0.0076,0.947
14.576,24.64,51.46,1000.27,0.000000,0.000000,0.00,0,1,1.0347,-0.0102,0.0993,-3.2595,5.9008,1.8855,1.039
14.582,24.63,51.45,1000.26,0.000000,0.000000,0.00,0,1,0.9968,-0.0742,0.0141,3.4580,5.2290,7.1908,1.000
14.656,24.63,51.45,1000.26,0.000000,0.000000,0.00,0,1,1.0088,-0.0573,0.0251,4.5191,4.6412,7.1145,1.011
14.662,24.64,51.45,1000.28,0.000000,0.000000,0.00,0,1,1.0149,-0.0720,0.0163,6.5267,-4.9313,4.0229,1.018
14.793,24.64,51.45,1000.28,0.000000,0.000000,0.00,0,1,1.0195,-0.0803,-0.0205,6.3664,-11.3969,-3.9542,1.023
14.799,24.64,51.45,1000.28,0.000000,0.000000,0.00,0,1,1.0198,-0.0979,-0.0310,6.1832,-11.6260,-4.6565,1.025
14.805,24.64,51.45,1000.28,0.000000,0.000000,0.00,0,1,1.0210,-0.0778,-0.0148,6.0611,-11.7634,-5.5191,1.024
14.811,24.63,51.44,1000.28,0.000000,0.000000,0.00,0,1,1.0195,-0.0871,-0.0397,6.3817,-11.9618,-5.8702,1.024
14.817,24.63,51.44,1000.28,0.000000,0.000000,0.00,0,1,1.0266,-0.0791,-0.0317,6.1069,-12.3435,-6.7405,1.030
14.823,24.63,51.44,1000.28,0.000000,0.000000,0.00,0,1,1.0308,-0.0905,-0.0412,6.1145,-12.1679,-7.3969,1.036
14.829,24.63,51.44,1000.28,0.000000,0.000000,0.00,0,1,1.0205,-0.0773,-0.0446,6.1221,-12.2901,-7.7099,1.024
14.835,24.63,51.44,1000.28,0.000000,0.000000,0.00,0,1,1.0256,-0.0803,-0.0490,6.0916,-12.4198,-7.9618,1.030
14.841,24.63,51.44,1000.28,0.000000,0.000000,0.00,0,1,1.0203,-0.0739,-0.0529,5.7557,-12.3588,-8.5649,1.024
14.847,24.63,51.44,1000.28,0.000000,0.000000,0.00,0,1,1.0303,-0.0693,-0.0551,5.9695,-12.3359,-8.7557,1.034
14.936,24.60,51.44,1000.21,0.000000,0.000000,0.00,0,1,1.0103,-0.0341,-0.0893,1.3282,-3.4198,-7.5878,1.015
14.942,24.60,51.44,1000.21,0.000000,0.000000,0.00,0,1,1.0051,-0.0373,-0.0847,0.6489,-2.6565,-7.4504,1.009
14.948,24.60,51.44,1000.21,0.000000,0.000000,0.00,0,1,1.0117,-0.0300,-0.0935,-0.1450,-2.2137,-6.8702,1.016
14.954,24.60,51.44,1000.21,0.000000,0.000000,0.00,0,1,1.0129,-0.0371,-0.0869,-0.4733,-1.5267,-6.6870,1.017
14.960,24.60,51.44,1000.21,0.000000,0.000000,0.00,0,1,1.0098,-0.0349,-0.0852,-0.5038,-0.9389,-6.1679,1.014
14.966,24.60,51.44,1000.21,0.000000,0.000000,0.00,0,1,1.0078,-0.0432,-0.0744,-0.4656,-0.2901,-5.5267,1.011
14.972,24.60,51.44,1000.21,0.000000,0.000000,0.00,0,1,1.0090,-0.0422,-0.0644,-0.1450,-0.0534,-5.0458,1.012
14.978,24.60,51.44,1000.21,0.000000,0.000000,0.00,0,1,1.0151,-0.0476,-0.0668,0.1298,0.3740,-4.6260,1.018
14.984,24.60,51.44,1000.21,0.000000,0.000000,0.00,0,1,1.0205,-0.0459,-0.0576,0.4809,0.7634,-4.5573,1.023
14.990,24.60,51.44,1000.25,0.000000,0.000000,0.00,0,1,0.9873,-0.0517,-0.0146,6.6870,-0.3206,-4.2672,0.989
15.125,24.64,51.42,1000.27,0.000000,0.000000,0.00,0,1,1.0039,-0.0146,-0.0300,10.2595,-5.1374,-5.6565,1.004
15.131,24.64,51.42,1000.27,0.000000,0.000000,0.00,0,1,1.0098,-0.0085,-0.0329,10.3053,-5.6718,-5.6336,1.010
15.137,24.64,51.42,1000.27,0.000000,0.000000,0.00,0,1,0.9988,-0.0151,-0.0495,10.1069,-6.3817,-5.4656,1.000
15.143,24.64,51.42,1000.27,0.000000,0.000000,0.00,0,1,1.0020,-0.0026,-0.0451,9.9771,-6.7176,-5.3740,1.003
15.149,24.64,51.42,1000.27,0.000000,0.000000,0.00,0,1,1.0051,-0.0097,-0.0529,10.0763,-7.2901,-5.5344,1.007
15.155,24.64,51.42,1000.27,0.000000,0.000000,0.00,0,1,1.0088,-0.0122,-0.0522,10.0534,-7.8015,-5.6641,1.010
15.161,24.64,51.42,1000.27,0.000000,0.000000,0.00,0,1,1.0093,-0.0092,-0.0502,9.6870,-8.0687,-5.6641,1.011
15.167,24.64,51.42,1000.27,0.000000,0.000000,0.00,0,1,1.0088,-0.0085,-0.0639,9.6641,-8.5115,-5.2901,1.011
15.173,24.64,51.42,1000.27,0.000000,0.000000,0.00,0,1,0.9998,-0.0031,-0.0576,9.4656,-9.0305,-5.2519,1.001
15.179,24.64,51.42,1000.27,0.000000,0.000000,0.00,0,1,1.0051,-0.0014,-0.0625,9.2519,-9.2137,-5.4427,1.007
15.226,24.62,51.43,1000.22,0.000000,0.000000,0.00,0,1,1.0227,-0.0117,-0.0822,5.6031,-10.5725,-4.8550,1.026
15.232,24.62,51.43,1000.22,0.000000,0.000000,0.00,0,1,1.0273,-0.0185,-0.0900,4.9924,-10.5038,-4.7634,1.031
15.239,24.62,51.43,1000.22,0.000000,0.000000,0.00,0,1,1.0269,-0.0190,-0.0874,4.4504,-10.2519,-4.7405,1.031
15.245,24.62,51.43,1000.22,0.000000,0.000000,0.00,0,1,1.0310,-0.0166,-0.0944,4.3435,-10.1069,-4.6031,1.035
15.251,24.62,51.43,1000.22,0.000000,0.000000,0.00,0,1,1.0227,-0.0197,-0.1028,4.0763,-9.6870,-4.8092,1.028
15.257,24.62,51.43,1000.22,0.000000,0.000000,0.00,0,1,1.0234,-0.0153,-0.0979,4.2672,-9.3206,-4.8321,1.028
15.263,24.62,51.43,1000.22,0.000000,0.000000,0.00,0,1,1.0242,-0.0222,-0.0893,4.3435,-8.8931,-4.8931,1.028
15.269,24.62,51.43,1000.22,0.000000,0.000000,0.00,0,1,1.0247,-0.0334,-0.0959,4.4809,-8.5878,-4.9542,1.030
15.275,24.62,51.43,1000.22,0.000000,0.000000,0.00,0,1,1.0242,-0.0212,-0.1016,4.8626,-7.8168,-5.3206,1.029
15.281,24.62,51.43,1000.22,0.000000,0.000000,0.00,0,1,1.0283,-0.0346,-0.0922,4.8168,-7.2748,-5.5954,1.033
15.321,24.63,51.39,1000.24,0.000000,0.000000,0.00,0,1,1.0225,-0.0183,-0.1030,4.6641,-3.2137,-6.5878,1.028
15.327,24.63,51.39,1000.24,0.000000,0.000000,0.00,0,1,1.0266,-0.0188,-0.1079,4.4580,-2.7328,-6.6794,1.032
15.333,24.63,51.39,1000.24,0.000000,0.000000,0.00,0,1,1.0237,-0.0180,-0.1067,4.2137,-2.0611,-6.7176,1.029
15.339,24.63,51.39,1000.24,0.000000,0.000000,0.00,0,1,1.0198,-0.0136,-0.1047,4.0534,-1.5191,-6.6794,1.025
15.345,24.63,51.39,1000.24,0.000000,0.000000,0.00,0,1,1.0171,-0.0129,-0.0971,3.8244,-0.8244,-6.7252,1.022
15.351,24.63,51.39,1000.24,0.000000,0.000000,0.00,0,1,1.0244,-0.0151,-0.0891,3.7710,-0.0458,-6.5344,1.028
15.357,24.63,51.39,1000.24,0.000000,0.000000,0.00,0,1,1.0188,-0.0102,-0.0981,3.6183,0.4504,-6.2672,1.024
15.363,24.63,51.39,1000.24,0.000000,0.000000,0.00,0,1,1.0188,-0.0131,-0.1079,3.6641,1.0382,-6.4198,1.025
15.369,24.63,51.39,1000.24,0.000000,0.000000,0.00,0,1,1.0203,-0.0097,-0.0971,3.7023,1.4885,-5.9618,1.025
15.375,24.63,51.39,1000.24,0.000000,0.000000,0.00,0,1,1.0195,-0.0139,-0.0908,3.8626,1.8779,-5.7023,1.024
15.451,24.63,51.37,1000.23,0.000000,0.000000,0.00,0,1,1.0120,-0.0063,-0.0822,5.3588,4.9389,-2.8092,1.015
15.457,24.63,51.37,1000.23,0.000000,0.000000,0.00,0,1,1.0051,-0.0009,-0.0866,4.9695,5.0611,-2.5954,1.009
15.463,24.63,51.37,1000.23,0.000000,0.000000,0.00,0,1,1.0029,-0.0021,-0.0905,4.9237,4.9542,-2.2595,1.007
15.469,24.63,51.37,1000.23,0.000000,0.000000,0.00,0,1,1.0066,0.0026,-0.0756,4.6336,5.0458,-2.1908,1.009
15.475,24.63,51.37,1000.23,0.000000,0.000000,0.00,0,1,1.0093,-0.0002,-0.0859,4.6718,4.8321,-1.7405,1.013
15.481,24.63,51.37,1000.23,0.000000,0.000000,0.00,0,1,1.0144,-0.0009,-0.0800,5.1832,4.5038,-1.5878,1.018
15.487,24.63,51.37,1000.23,0.000000,0.000000,0.00,0,1,1.0125,-0.0034,-0.0808,5.4504,4.6489,-1.3206,1.016
15.493,24.65,51.40,1000.26,0.000000,0.000000,0.00,0,1,1.0220,-0.0021,-0.0871,5.6183,4.2214,-1.1985,1.026
15.499,24.65,51.40,1000.26,0.000000,0.000000,0.00,0,1,1.0205,-0.0041,-0.0813,6.0229,4.1450,-0.8931,1.024
15.505,24.65,51.40,1000.26,0.000000,0.000000,0.00,0,1,1.0176,-0.0097,-0.0813,6.5573,3.9542,-0.9160,1.021
15.556,24.65,51.40,1000.26,0.000000,0.000000,0.00,0,1,1.0144,-0.0085,-0.0874,6.2748,2.3282,-3.4198,1.018
15.562,24.65,51.40,1000.26,0.000000,0.000000,0.00,0,1,1.0144,0.0065,-0.0856,5.6260,1.8321,-4.2366,1.018
15.568,24.65,51.40,1000.26,0.000000,0.000000,0.00,0,1,1.0164,0.0012,-0.0783,5.0153,1.4580,-5.1374,1.019
15.574,24.65,51.40,1000.26,0.000000,0.000000,0.00,0,1,1.0137,0.0019,-0.0832,4.6718,0.8092,-5.9237,1.017
15.580,24.65,51.40,1000.26,0.000000,0.000000,0.00,0,1,1.0190,0.0080,-0.0749,4.1221,0.1679,-6.4122,1.022
15.586,24.65,51.40,1000.26,0.000000,0.000000,0.00,0,1,1.0166,0.0097,-0.0822,3.8473,-0.3740,-7.2977,1.020
15.592,24.64,51.41,1000.22,0.000000,0.000000,0.00,0,1,1.0078,0.0153,-0.0800,3.3282,-0.8779,-7.7252,1.011
15.598,24.64,51.41,1000.22,0.000000,0.000000,0.00,0,1,1.0090,0.0207,-0.0769,3.1679,-1.7328,-7.9160,1.012
15.604,24.64,51.41,1000.22,0.000000,0.000000,0.00,0,1,0.9980,0.0476,-0.0869,3.2748,-5.8321,-4.3053,1.003
15.679,24.64,51.41,1000.22,0.000000,0.000000,0.00,0,1,1.0029,0.0463,-0.1047,3.5038,-5.8168,-3.9466,1.009
15.754,24.64,51.36,1000.24,0.000000,0.000000,0.00,0,1,1.0210,0.0412,-0.1294,5.5115,-3.3359,-0.4809,1.030
15.760,24.64,51.36,1000.24,0.000000,0.000000,0.00,0,1,1.0212,0.0356,-0.1313,5.1221,-2.7176,-0.2290,1.030
15.766,24.64,51.36,1000.24,0.000000,0.000000,0.00,0,1,1.0186,0.0446,-0.1243,5.3588,-2.9313,-0.3969,1.027
15.772,24.64,51.36,1000.24,0.000000,0.000000,0.00,0,1,1.0176,0.0432,-0.1382,4.7023,-1.8168,-0.3130,1.028
15.778,24.64,51.36,1000.24,0.000000,0.000000,0.00,0,1,1.0168,0.0473,-0.1309,4.2519,-1.5878,-0.4046,1.026
15.784,24.64,51.38,1000.26,0.000000,0.000000,0.00,0,1,1.0168,0.0424,-0.1404,3.3359,-1.0840,-0.2595,1.027
15.790,24.65,51.38,1000.26,0.000000,0.000000,0.00,0,1,1.0166,0.0515,-0.1343,2.6947,-0.5496,-0.0763,1.027
15.796,24.65,51.38,1000.26,0.000000,0.000000,0.00,0,1,1.0095,0.0390,-0.1348,2.3130,0.0610,-0.1985,1.019
15.802,24.65,51.38,1000.26,0.000000,0.000000,0.00,0,1,1.0105,0.0241,-0.1289,1.3817,4.5802,1.1298,1.019
15.877,24.65,51.38,1000.26,0.000000,0.000000,0.00,0,1,1.0095,0.0278,-0.1243,1.3740,4.9466,1.0687,1.018
15.935,24.64,51.34,1000.23,0.000000,0.000000,0.00,0,1,1.0176,0.0356,-0.0954,0.9618,6.0687,2.9847,1.023
15.941,24.64,51.34,1000.23,0.000000,0.000000,0.00,0,1,1.0122,0.0366,-0.1028,0.7710,6.1756,3.0153,1.018
15.947,24.64,51.34,1000.23,0.000000,0.000000,0.00,0,1,1.0142,0.0385,-0.1001,0.3588,6.2366,3.1832,1.020
15.953,24.64,51.34,1000.23,0.000000,0.000000,0.00,0,1,1.0093,0.0378,-0.0966,0.1832,6.3053,3.3053,1.015
15.959,24.64,51.34,1000.25,0.000000,0.000000,0.00,0,1,1.0178,0.0017,-0.0786,-0.7481,4.3817,4.1756,1.021
16.033,24.65,51.34,1000.25,0.000000,0.000000,0.00,0,1,1.0139,-0.0136,-0.1104,-1.2366,4.1450,4.1603,1.020
16.039,24.65,51.34,1000.25,0.000000,0.000000,0.00,0,1,1.0295,-0.0087,-0.0854,-0.3740,3.8702,3.7939,1.033
16.045,24.65,51.34,1000.25,0.000000,0.000000,0.00,0,1,1.0283,-0.0053,-0.0983,-0.5954,3.3893,3.8244,1.033
16.051,24.65,51.31,1000.27,0.000000,0.000000,0.00,0,1,1.0198,0.0105,-0.0708,0.9924,2.7023,-0.1985,1.022
16.125,24.65,51.31,1000.27,0.000000,0.000000,0.00,0,1,1.0178,0.0029,-0.0661,1.0458,2.7176,-0.3359,1.020
16.234,24.66,51.32,1000.29,0.000000,0.000000,0.00,0,1,1.0129,0.0000,-0.1133,2.4427,0.0229,1.4275,1.019
16.240,24.66,51.32,1000.29,0.000000,0.000000,0.00,0,1,1.0144,0.0048,-0.1160,1.9618,-0.2061,1.4809,1.021
16.246,24.66,51.32,1000.29,0.000000,0.000000,0.00,0,1,1.0132,0.0124,-0.1191,1.7634,-0.4275,1.4351,1.020
16.252,24.66,51.32,1000.29,0.000000,0.000000,0.00,0,1,1.0188,0.0061,-0.1116,1.3053,-0.5115,1.4504,1.025
16.258,24.66,51.32,1000.29,0.000000,0.000000,0.00,0,1,1.0251,0.0085,-0.1123,0.9008,-0.2824,1.4351,1.031
16.264,24.66,51.32,1000.29,0.000000,0.000000,0.00,0,1,1.0208,0.0112,-0.1104,0.5496,-0.5802,1.4427,1.027
16.270,24.66,51.32,1000.28,0.000000,0.000000,0.00,0,1,1.0244,0.0156,-0.1147,0.4427,-0.4885,1.1527,1.031
16.276,24.65,51.29,1000.27,0.000000,0.000000,0.00,0,1,1.0347,0.0117,-0.1091,0.2366,-0.6565,1.3435,1.040
16.282,24.65,51.29,1000.27,0.000000,0.000000,0.00,0,1,1.0330,0.0102,-0.1199,0.4504,-0.6031,0.9084,1.040
16.288,24.65,51.29,1000.27,0.000000,0.000000,0.00,0,1,1.0352,0.0183,-0.1123,0.2824,-0.6947,1.1527,1.041
16.346,24.65,51.29,1000.27,0.000000,0.000000,0.00,0,1,1.0256,0.0188,-0.0876,0.1374,1.7786,1.1450,1.030
16.352,24.65,51.29,1000.27,0.000000,0.000000,0.00,0,1,1.0220,0.0180,-0.1003,0.3359,2.0000,0.7252,1.027
16.358,24.65,51.29,1000.27,0.000000,0.000000,0.00,0,1,1.0176,0.0105,-0.0986,0.4733,2.1908,0.9771,1.022
16.364,24.65,51.29,1000.27,0.000000,0.000000,0.00,0,1,1.0164,0.0048,-0.0986,0.5802,2.5725,1.0153,1.021
16.370,24.63,51.28,1000.24,0.000000,0.000000,0.00,0,1,1.0159,0.0095,-0.0942,0.7176,2.9160,1.0382,1.020
16.376,24.63,51.28,1000.24,0.000000,0.000000,0.00,0,1,1.0154,0.0095,-0.0939,0.8779,3.2901,1.1374,1.020
16.382,24.63,51.28,1000.24,0.000000,0.000000,0.00,0,1,1.0125,0.0083,-0.0905,1.0840,3.4122,1.0916,1.017
16.388,24.63,51.28,1000.24,0.000000,0.000000,0.00,0,1,1.0100,0.0039,-0.0896,1.4656,3.6107,1.0153,1.014
16.394,24.63,51.28,1000.24,0.000000,0.000000,0.00,0,1,1.0134,0.0024,-0.0915,1.7710,3.9618,1.2824,1.018
16.400,24.63,51.28,1000.24,0.000000,0.000000,0.00,0,1,1.0039,0.0012,-0.0908,2.0000,3.7863,1.2214,1.008
16.426,24.63,51.28,1000.24,0.000000,0.000000,0.00,0,1,1.0090,0.0043,-0.1013,2.8168,4.0687,0.6336,1.014
16.432,24.63,51.28,1000.24,0.000000,0.000000,0.00,0,1,1.0117,0.0065,-0.0964,2.7252,4.0534,0.6641,1.016
16.438,24.63,51.28,1000.24,0.000000,0.000000,0.00,0,1,1.0159,0.0051,-0.0886,2.4046,3.8092,0.8244,1.020
16.444,24.63,51.28,1000.24,0.000000,0.000000,0.00,0,1,1.0173,0.0087,-0.0866,2.2595,3.5115,0.7328,1.021
16.450,24.63,51.28,1000.24,0.000000,0.000000,0.00,0,1,1.0149,0.0107,-0.0871,1.7710,3.3282,0.8321,1.019
16.456,24.63,51.28,1000.24,0.000000,0.000000,0.00,0,1,1.0161,0.0122,-0.1001,1.4198,2.8779,0.9924,1.021
16.462,24.63,51.28,1000.24,0.000000,0.000000,0.00,0,1,1.0190,0.0092,-0.0883,1.1374,2.5115,0.9008,1.023
16.468,24.62,51.26,1000.21,0.000000,0.000000,0.00,0,1,1.0212,0.0109,-0.0905,1.1298,2.2748,1.0382,1.025
16.474,24.62,51.26,1000.21,0.000000,0.000000,0.00,0,1,1.0210,0.0109,-0.0822,1.2137,1.9084,1.0611,1.024
16.480,24.62,51.26,1000.21,0.000000,0.000000,0.00,0,1,1.0200,0.0021,-0.0791,1.0992,1.4656,1.2901,1.023
16.543,24.62,51.26,1000.21,0.000000,0.000000,0.00,0,1,1.0103,-0.0031,-0.0969,1.5878,1.0229,-0.0992,1.015
16.549,24.62,51.26,1000.22,0.000000,0.000000,0.00,0,1,1.0244,0.0090,-0.0898,2.1069,2.4504,0.8626,1.028
16.623,24.64,51.31,1000.22,0.000000,0.000000,0.00,0,1,1.0208,-0.0043,-0.0930,2.2748,2.2366,1.0611,1.025
16.629,24.64,51.31,1000.22,0.000000,0.000000,0.00,0,1,1.0203,0.0048,-0.0959,2.1832,2.2519,1.0840,1.025
16.635,24.64,51.31,1000.22,0.000000,0.000000,0.00,0,1,1.0127,0.0039,-0.0891,2.1450,2.1756,0.8092,1.017
16.641,24.64,51.31,1000.22,0.000000,0.000000,0.00,0,1,1.0156,0.0026,-0.0800,1.7176,2.3817,1.0534,1.019
16.647,24.64,51.31,1000.22,0.000000,0.000000,0.00,0,1,1.0168,0.0026,-0.0893,1.7634,2.1450,0.8321,1.021
16.653,24.64,51.31,1000.22,0.000000,0.000000,0.00,0,1,1.0227,0.0053,-0.0886,1.7634,2.0305,0.6641,1.027
16.659,24.64,51.31,1000.22,0.000000,0.000000,0.00,0,1,1.0264,-0.0029,-0.0996,1.8855,2.0229,0.6412,1.031
16.665,24.66,51.30,1000.27,0.000000,0.000000,0.00,0,1,1.0225,0.0012,-0.0861,1.8092,2.0916,0.3817,1.026
16.707,24.66,51.30,1000.27,0.000000,0.000000,0.00,0,1,1.0181,0.0087,-0.0727,2.3969,1.8702,-0.9542,1.021
16.712,24.66,51.30,1000.27,0.000000,0.000000,0.00,0,1,1.0186,0.0097,-0.0876,2.3969,1.9084,-1.1374,1.022
16.718,24.66,51.30,1000.27,0.000000,0.000000,0.00,0,1,1.0205,0.0063,-0.0874,2.1985,1.7481,-0.9695,1.024
16.725,24.66,51.30,1000.27,0.000000,0.000000,0.00,0,1,1.0186,0.0124,-0.0788,1.9847,1.8550,-0.9542,1.022
16.730,24.66,51.30,1000.27,0.000000,0.000000,0.00,0,1,1.0237,0.0078,-0.0935,2.0076,1.8931,-0.8473,1.028
16.736,24.66,51.30,1000.27,0.000000,0.000000,0.00,0,1,1.0178,0.0073,-0.0896,2.1069,1.7405,-0.8626,1.022
16.742,24.66,51.30,1000.27,0.000000,0.000000,0.00,0,1,1.0125,0.0097,-0.0883,2.2977,1.5344,-0.4427,1.016
16.748,24.66,51.30,1000.27,0.000000,0.000000,0.00,0,1,1.0063,0.0051,-0.0874,2.4046,1.5496,-0.3206,1.010
16.754,24.66,51.30,1000.27,0.000000,0.000000,0.00,0,1,1.0093,0.0043,-0.0866,2.2366,1.3053,-0.3740,1.013
16.760,24.65,51.27,1000.24,0.000000,0.000000,0.00,0,1,1.0200,0.0036,-0.0988,1.9389,0.5115,0.2519,1.025
16.857,24.66,51.30,1000.24,0.000000,0.000000,0.00,0,1,1.0134,0.0029,-0.0961,1.4656,0.8473,0.3359,1.018
16.863,24.66,51.30,1000.24,0.000000,0.000000,0.00,0,1,1.0225,0.0002,-0.0949,1.5802,0.7023,0.4046,1.027
16.869,24.66,51.30,1000.24,0.000000,0.000000,0.00,0,1,1.0164,-0.0014,-0.0947,1.5725,0.8779,0.5191,1.021
16.875,24.66,51.30,1000.24,0.000000,0.000000,0.00,0,1,1.0227,0.0012,-0.1013,1.5115,1.1069,0.5878,1.028
16.881,24.66,51.30,1000.24,0.000000,0.000000,0.00,0,1,1.0198,0.0131,-0.0815,2.1756,1.9924,0.4580,1.023
16.955,24.64,51.28,1000.24,0.000000,0.000000,0.00,0,1,1.0234,0.0053,-0.0961,1.9160,1.8702,0.8092,1.028
16.961,24.64,51.28,1000.24,0.000000,0.000000,0.00,0,1,1.0142,0.0144,-0.0888,1.8779,1.9160,0.6794,1.018
16.967,24.64,51.28,1000.24,0.000000,0.000000,0.00,0,1,1.0195,0.0109,-0.0915,1.8779,1.6794,1.1603,1.024
16.973,24.64,51.28,1000.24,0.000000,0.000000,0.00,0,1,1.0166,-0.0026,-0.0998,2.2519,0.7481,-0.4962,1.021
17.048,24.64,51.28,1000.24,0.000000,0.000000,0.00,0,1,1.0269,0.0061,-0.0883,2.3206,0.8168,-0.5649,1.031
17.196,24.66,51.28,1000.28,0.000000,0.000000,0.00,0,1,1.0229,0.0043,-0.0905,1.6107,1.8168,0.2519,1.027
17.201,24.66,51.28,1000.28,0.000000,0.000000,0.00,0,1,1.0193,0.0053,-0.0991,1.9542,1.7786,0.7328,1.024
17.207,24.66,51.28,1000.28,0.000000,0.000000,0.00,0,1,1.0149,0.0041,-0.0896,2.0153,1.6794,0.5573,1.019
17.213,24.66,51.28,1000.28,0.000000,0.000000,0.00,0,1,1.0161,-0.0034,-0.0932,1.9618,1.7786,0.7710,1.020
17.219,24.66,51.28,1000.28,0.000000,0.000000,0.00,0,1,1.0159,0.0007,-0.0900,1.9924,1.7557,0.8550,1.020
17.225,24.66,51.28,1000.28,0.000000,0.000000,0.00,0,1,1.0203,-0.0012,-0.0913,1.8168,1.6870,0.9160,1.024
17.231,24.66,51.28,1000.28,0.000000,0.000000,0.00,0,1,1.0120,0.0000,-0.0920,2.0916,1.6489,0.5573,1.016
17.237,24.66,51.28,1000.28,0.000000,0.000000,0.00,0,1,1.0195,-0.0046,-0.0979,2.0992,1.6718,0.7023,1.024
17.243,24.66,51.28,1000.28,0.000000,0.000000,0.00,0,1,1.0200,0.0012,-0.0939,1.8473,1.7023,0.4122,1.024
17.249,24.66,51.23,1000.26,0.000000,0.000000,0.00,0,1,1.0154,0.0012,-0.0952,1.6947,1.7328,0.1069,1.020
17.317,24.66,51.23,1000.26,0.000000,0.000000,0.00,0,1,1.0244,0.0034,-0.0913,1.7939,1.0534,-0.8321,1.028
17.322,24.66,51.23,1000.26,0.000000,0.000000,0.00,0,1,1.0205,0.0056,-0.1006,1.4580,1.0229,-0.9008,1.025
17.328,24.66,51.23,1000.26,0.000000,0.000000,0.00,0,1,1.0203,0.0012,-0.0937,1.2977,1.0229,-0.7023,1.025
17.334,24.66,51.23,1000.26,0.000000,0.000000,0.00,0,1,1.0195,0.0014,-0.0910,1.4046,0.9466,-0.6947,1.024
17.340,24.66,51.23,1000.26,0.000000,0.000000,0.00,0,1,1.0173,0.0080,-0.1006,1.2595,0.9847,-0.9771,1.022
17.346,24.66,51.25,1000.25,0.000000,0.000000,0.00,0,1,1.0154,0.0129,-0.0922,1.1908,1.0000,-1.0153,1.020
17.353,24.66,51.27,1000.24,0.000000,0.000000,0.00,0,1,1.0186,0.0061,-0.1021,1.8397,0.6183,-0.1908,1.024
17.496,24.65,51.27,1000.24,0.000000,0.000000,0.00,0,1,1.0149,0.0095,-0.1072,1.6336,0.7405,-0.2519,1.021
17.502,24.65,51.27,1000.24,0.000000,0.000000,0.00,0,1,1.0168,0.0065,-0.1050,1.6489,0.7176,-0.3511,1.022
17.508,24.65,51.27,1000.24,0.000000,0.000000,0.00,0,1,1.0161,0.0053,-0.1021,1.5344,0.6489,-0.2137,1.021
17.629,24.66,51.28,1000.25,0.000000,0.000000,0.00,0,1,1.0164,0.0151,-0.0998,1.6718,1.5344,0.2137,1.021
17.635,24.66,51.28,1000.26,0.000000,0.000000,0.00,0,1,1.0173,0.0039,-0.1013,1.6336,1.5420,0.1145,1.022
17.640,24.67,51.28,1000.26,0.000000,0.000000,0.00,0,1,1.0161,0.0107,-0.0910,1.4962,1.0611,-0.3206,1.020
17.714,24.67,51.28,1000.26,0.000000,0.000000,0.00,0,1,1.0154,0.0073,-0.0976,1.5267,0.8626,-0.2137,1.020
17.720,24.67,51.28,1000.26,0.000000,0.000000,0.00,0,1,1.0173,0.0087,-0.1052,1.6565,0.8931,-0.3130,1.023
17.726,24.67,51.28,1000.26,0.000000,0.000000,0.00,0,1,1.0166,0.0058,-0.0942,1.8168,1.0534,-0.3359,1.021
17.733,24.66,51.33,1000.27,0.000000,0.000000,0.00,0,1,1.0178,0.0034,-0.0925,1.6489,0.4427,0.5878,1.022
17.807,24.66,51.33,1000.27,0.000000,0.000000,0.00,0,1,1.0198,0.0100,-0.0986,1.8931,0.4885,0.8550,1.025
17.813,24.66,51.33,1000.27,0.000000,0.000000,0.00,0,1,1.0164,0.0048,-0.1023,2.0076,0.5344,0.7023,1.022
17.819,24.66,51.33,1000.27,0.000000,0.000000,0.00,0,1,1.0112,0.0019,-0.0927,1.7099,0.4809,0.6107,1.015
17.954,24.67,51.25,1000.26,0.000000,0.000000,0.00,0,1,1.0149,0.0129,-0.1035,2.1298,0.3511,1.5420,1.020
17.960,24.67,51.25,1000.26,0.000000,0.000000,0.00,0,1,1.0132,0.0136,-0.1047,1.9313,0.2824,1.6260,1.019
17.966,24.67,51.25,1000.26,0.000000,0.000000,0.00,0,1,1.0215,0.0168,-0.1067,1.7252,0.3511,1.9084,1.027
17.972,24.67,51.25,1000.26,0.000000,0.000000,0.00,0,1,1.0176,0.0127,-0.1055,1.5802,0.3435,1.9084,1.023
17.978,24.67,51.25,1000.26,0.000000,0.000000,0.00,0,1,1.0083,0.0095,-0.1038,1.1527,0.4427,1.9618,1.014
17.984,24.67,51.25,1000.26,0.000000,0.000000,0.00,0,1,1.0095,0.0063,-0.1079,1.3511,0.5573,1.6107,1.015
17.990,24.67,51.25,1000.26,0.000000,0.000000,0.00,0,1,1.0095,-0.0007,-0.1045,1.1374,0.6183,1.6641,1.015
17.996,24.67,51.25,1000.26,0.000000,0.000000,0.00,0,1,1.0110,0.0014,-0.1060,1.6794,0.4427,1.8244,1.017
18.002,24.67,51.25,1000.26,0.000000,0.000000,0.00,0,1,1.0112,-0.0014,-0.1018,1.6489,0.4275,1.7481,1.016
18.008,24.67,51.25,1000.26,0.000000,0.000000,0.00,0,1,1.0129,0.0019,-0.0969,2.1832,0.3588,1.6947,1.018
18.156,24.67,51.25,1000.29,0.000000,0.000000,0.00,0,1,1.0178,0.0034,-0.1099,1.4962,0.1069,-0.1527,1.024
18.162,24.67,51.25,1000.29,0.000000,0.000000,0.00,0,1,1.0193,-0.0009,-0.1052,1.6565,0.0076,-0.1374,1.025
18.168,24.67,51.25,1000.29,0.000000,0.000000,0.00,0,1,1.0098,0.0000,-0.1067,1.7786,-0.1756,-0.2519,1.015
18.174,24.67,51.25,1000.29,0.000000,0.000000,0.00,0,1,1.0168,0.0007,-0.1018,2.0382,-0.2290,0.0305,1.022
18.179,24.67,51.25,1000.28,0.000000,0.000000,0.00,0,1,1.0081,-0.0068,-0.1030,2.2595,-2.8015,0.2443,1.013
18.256,24.67,51.25,1000.28,0.000000,0.000000,0.00,0,1,1.0127,-0.0009,-0.1011,2.1603,-3.2824,0.2595,1.018
18.262,24.67,51.25,1000.28,0.000000,0.000000,0.00,0,1,1.0068,0.0039,-0.0954,2.3588,-3.5802,0.4809,1.011
18.268,24.67,51.25,1000.28,0.000000,0.000000,0.00,0,1,1.0071,-0.0026,-0.1094,2.0534,-3.6870,0.2901,1.013
18.274,24.67,51.25,1000.28,0.000000,0.000000,0.00,0,1,1.0129,-0.0046,-0.0952,2.3282,-3.7405,0.3893,1.017
18.280,24.67,51.24,1000.27,0.000000,0.000000,0.00,0,1,1.0217,0.0012,-0.1204,3.6412,-7.7939,-0.7710,1.029
18.398,24.67,51.24,1000.27,0.000000,0.000000,0.00,0,1,1.0227,0.0109,-0.1387,2.7176,-7.5191,-2.8397,1.032
18.404,24.67,51.24,1000.27,0.000000,0.000000,0.00,0,1,1.0151,0.0065,-0.1421,2.8550,-7.1832,-2.8473,1.025
18.410,24.67,51.24,1000.27,0.000000,0.000000,0.00,0,1,1.0212,0.0141,-0.1345,2.8931,-6.7786,-2.9924,1.030
18.416,24.67,51.25,1000.27,0.000000,0.000000,0.00,0,1,1.0205,0.0041,-0.1421,3.0076,-6.6336,-3.0229,1.030
18.422,24.67,51.25,1000.27,0.000000,0.000000,0.00,0,1,1.0164,0.0061,-0.1482,2.9695,-5.9466,-3.0916,1.027
18.428,24.67,51.25,1000.27,0.000000,0.000000,0.00,0,1,1.0222,0.0053,-0.1484,3.3206,-5.7939,-3.0076,1.033
18.433,24.67,51.25,1000.27,0.000000,0.000000,0.00,0,1,1.0227,0.0114,-0.1567,3.4046,-5.5420,-2.7710,1.035
18.439,24.67,51.25,1000.27,0.000000,0.000000,0.00,0,1,1.0286,0.0236,-0.1580,2.4046,1.1603,0.9847,1.041
18.514,24.65,51.23,1000.22,0.000000,0.000000,0.00,0,1,1.0164,0.0007,-0.1599,1.7634,5.9695,2.8321,1.029
18.588,24.65,51.23,1000.22,0.000000,0.000000,0.00,0,1,1.0234,-0.0007,-0.1589,1.4885,6.3130,2.6412,1.036
18.665,24.68,51.25,1000.28,0.000000,0.000000,0.00,0,1,1.0217,-0.0002,-0.1294,1.4046,8.3664,1.1145,1.030
18.671,24.68,51.25,1000.28,0.000000,0.000000,0.00,0,1,1.0195,-0.0024,-0.1230,1.3664,8.3817,1.4122,1.027
18.677,24.68,51.25,1000.28,0.000000,0.000000,0.00,0,1,1.0249,0.0000,-0.1223,1.5038,8.4046,1.1985,1.032
18.683,24.68,51.25,1000.28,0.000000,0.000000,0.00,0,1,1.0229,-0.0112,-0.1147,1.6107,8.4122,1.3359,1.029
18.689,24.68,51.25,1000.28,0.000000,0.000000,0.00,0,1,1.0203,-0.0087,-0.1184,2.0305,8.3435,1.0000,1.027
18.695,24.68,51.25,1000.28,0.000000,0.000000,0.00,0,1,1.0232,-0.0075,-0.1187,2.1679,8.1069,0.8855,1.030
18.701,24.68,51.25,1000.28,0.000000,0.000000,0.00,0,1,1.0212,-0.0078,-0.1243,2.4656,7.8931,0.8473,1.029
18.707,24.68,51.21,1000.25,0.000000,0.000000,0.00,0,1,1.0142,-0.0083,-0.1128,2.7176,7.7557,0.9008,1.020
18.713,24.68,51.21,1000.25,0.000000,0.000000,0.00,0,1,1.0127,-0.0107,-0.1157,2.7557,7.2137,0.5496,1.019
18.719,24.68,51.21,1000.25,0.000000,0.000000,0.00,0,1,1.0046,-0.0114,-0.1082,2.8550,6.9618,0.2748,1.011
18.795,24.68,51.21,1000.25,0.000000,0.000000,0.00,0,1,1.0107,0.0026,-0.1157,2.8931,1.5420,-0.8550,1.017
18.801,24.68,51.21,1000.25,0.000000,0.000000,0.00,0,1,1.0254,0.0097,-0.1274,2.6107,-0.2824,0.2977,1.033
18.876,24.66,51.21,1000.25,0.000000,0.000000,0.00,0,1,1.0168,0.0051,-0.1372,2.5725,0.2748,-0.1374,1.026
18.881,24.66,51.21,1000.25,0.000000,0.000000,0.00,0,1,1.0195,0.0019,-0.1279,2.6641,0.4122,-0.2290,1.028
18.887,24.66,51.21,1000.25,0.000000,0.000000,0.00,0,1,1.0139,0.0080,-0.1362,2.5878,0.8092,-0.2595,1.023
18.894,24.67,51.20,1000.25,0.000000,0.000000,0.00,0,1,1.0076,0.0241,-0.1348,2.5725,2.3588,0.6794,1.017
18.968,24.67,51.20,1000.25,0.000000,0.000000,0.00,0,1,1.0208,0.0249,-0.1340,2.3893,2.2748,0.9084,1.030
18.974,24.68,51.22,1000.25,0.000000,0.000000,0.00,0,1,1.0068,-0.0070,-0.1211,0.8550,2.9237,2.6412,1.014
19.049,24.68,51.22,1000.25,0.000000,0.000000,0.00,0,1,1.0066,-0.0090,-0.1138,1.0000,3.2366,2.2901,1.013
19.055,24.68,51.22,1000.25,0.000000,0.000000,0.00,0,1,1.0024,-0.0014,-0.1189,1.3664,3.2824,1.9084,1.009
19.147,24.68,51.20,1000.26,0.000000,0.000000,0.00,0,1,1.0271,0.0124,-0.1001,3.0076,2.7939,4.8168,1.032
19.153,24.68,51.20,1000.26,0.000000,0.000000,0.00,0,1,1.0310,0.0134,-0.0971,2.9771,2.3282,5.2214,1.036
19.159,24.68,51.20,1000.27,0.000000,0.000000,0.00,0,1,1.0242,-0.0170,-0.1309,0.7863,1.2595,3.3435,1.033
19.234,24.68,51.19,1000.28,0.000000,0.000000,0.00,0,1,1.0203,-0.0241,-0.1255,0.6412,1.0229,3.0992,1.028
19.240,24.68,51.19,1000.28,0.000000,0.000000,0.00,0,1,1.0300,-0.0339,-0.1274,0.7023,1.3130,3.2214,1.038
19.246,24.68,51.19,1000.28,0.000000,0.000000,0.00,0,1,1.0415,-0.0322,-0.1375,0.6107,1.2519,3.1221,1.051
19.252,24.68,51.19,1000.28,0.000000,0.000000,0.00,0,1,1.0437,-0.0378,-0.1270,0.6489,1.3130,3.1221,1.052
19.258,24.68,51.19,1000.28,0.000000,0.000000,0.00,0,1,1.0527,-0.0346,-0.1306,0.7863,1.6947,3.4198,1.061
19.264,24.68,51.19,1000.28,0.000000,0.000000,0.00,0,1,1.0574,-0.0371,-0.1406,0.8473,1.5191,3.4122,1.067
19.270,24.68,51.19,1000.28,0.000000,0.000000,0.00,0,1,1.0532,-0.0349,-0.1277,1.0840,1.7863,3.4656,1.062
19.391,24.68,51.18,1000.25,0.000000,0.000000,0.00,0,1,1.0134,0.0053,-0.1084,2.8321,2.8397,0.8626,1.019
19.397,24.68,51.18,1000.25,0.000000,0.000000,0.00,0,1,1.0166,-0.0014,-0.1167,2.4046,2.6794,1.3969,1.023
19.403,24.68,51.18,1000.25,0.000000,0.000000,0.00,0,1,1.0164,-0.0021,-0.1165,2.7481,1.9695,1.8855,1.023
19.409,24.68,51.18,1000.25,0.000000,0.000000,0.00,0,1,1.0081,0.0019,-0.1238,2.5038,1.6718,2.6107,1.016
19.415,24.68,51.18,1000.25,0.000000,0.000000,0.00,0,1,1.0054,-0.0097,-0.1321,2.3588,1.3435,3.0687,1.014
19.421,24.68,51.18,1000.25,0.000000,0.000000,0.00,0,1,1.0034,-0.0070,-0.1250,2.3969,1.1145,3.3969,1.011
19.427,24.68,51.18,1000.25,0.000000,0.000000,0.00,0,1,1.0100,-0.0080,-0.1284,1.9695,0.8626,3.6718,1.018
19.433,24.68,51.18,1000.25,0.000000,0.000000,0.00,0,1,1.0020,-0.0080,-0.1279,1.6641,0.7939,3.9695,1.010
19.439,24.68,51.18,1000.25,0.000000,0.000000,0.00,0,1,1.0105,-0.0163,-0.1387,1.1908,0.8473,4.1450,1.020
19.445,24.68,51.18,1000.25,0.000000,0.000000,0.00,0,1,1.0071,-0.0178,-0.1350,0.7634,0.8321,4.0840,1.016
19.486,24.68,51.17,1000.21,0.000000,0.000000,0.00,0,1,1.0098,-0.0283,-0.1357,-0.5954,2.0305,4.0153,1.019
19.493,24.65,51.16,1000.21,0.000000,0.000000,0.00,0,1,1.0100,-0.0263,-0.1292,-0.1527,2.0840,3.9389,1.019
19.499,24.65,51.16,1000.21,0.000000,0.000000,0.00,0,1,1.0095,-0.0183,-0.1362,0.0381,2.5725,4.3664,1.019
19.505,24.65,51.16,1000.21,0.000000,0.000000,0.00,0,1,1.0156,-0.0183,-0.1284,0.2061,2.6489,4.0992,1.024
19.511,24.65,51.16,1000.21,0.000000,0.000000,0.00,0,1,1.0198,-0.0239,-0.1252,-0.0992,2.7786,4.4962,1.028
19.517,24.65,51.16,1000.21,0.000000,0.000000,0.00,0,1,1.0225,-0.0229,-0.1313,0.3130,3.1527,4.5802,1.031
19.523,24.65,51.16,1000.21,0.000000,0.000000,0.00,0,1,1.0254,-0.0334,-0.1230,0.2672,3.2748,4.7863,1.033
19.529,24.65,51.16,1000.21,0.000000,0.000000,0.00,0,1,1.0264,-0.0202,-0.1125,0.1298,3.4733,4.9466,1.033
19.535,24.66,51.16,1000.20,0.000000,0.000000,0.00,0,1,1.0186,-0.0341,-0.0903,1.1985,6.0611,4.5649,1.023
19.609,24.66,51.16,1000.20,0.000000,0.000000,0.00,0,1,1.0186,-0.0410,-0.0932,1.2366,6.0305,4.2443,1.024
19.686,24.68,51.17,1000.24,0.000000,0.000000,0.00,0,1,1.0112,-0.0473,-0.1104,2.8702,2.8244,2.0687,1.018
19.692,24.68,51.17,1000.24,0.000000,0.000000,0.00,0,1,1.0090,-0.0366,-0.1042,3.0763,2.0916,2.5115,1.015
19.698,24.68,51.17,1000.24,0.000000,0.000000,0.00,0,1,1.0144,-0.0354,-0.0969,2.7176,1.6718,2.1527,1.020
19.704,24.68,51.17,1000.24,0.000000,0.000000,0.00,0,1,1.0188,-0.0373,-0.0996,2.9695,1.1527,2.4809,1.024
19.710,24.68,51.17,1000.24,0.000000,0.000000,0.00,0,1,1.0188,-0.0371,-0.1086,2.8321,0.5725,2.9313,1.025
19.716,24.68,51.17,1000.24,0.000000,0.000000,0.00,0,1,1.0200,-0.0334,-0.1035,2.5420,0.1527,2.8244,1.026
19.722,24.68,51.17,1000.24,0.000000,0.000000,0.00,0,1,1.0251,-0.0434,-0.1191,2.2748,-0.3435,2.9466,1.033
19.728,24.68,51.17,1000.24,0.000000,0.000000,0.00,0,1,1.0234,-0.0427,-0.1079,2.1679,-0.6336,3.1603,1.030
19.734,24.68,51.17,1000.24,0.000000,0.000000,0.00,0,1,1.0222,-0.0502,-0.1221,2.0611,-0.8855,3.1374,1.031
19.740,24.68,51.17,1000.24,0.000000,0.000000,0.00,0,1,1.0188,-0.0444,-0.1079,1.7863,-0.9466,3.0153,1.025
19.786,24.66,51.15,1000.21,0.000000,0.000000,0.00,0,1,1.0203,-0.0490,-0.1011,0.9466,-1.3206,3.0458,1.026
19.792,24.66,51.15,1000.21,0.000000,0.000000,0.00,0,1,1.0217,-0.0371,-0.0896,1.1679,-1.0916,3.0458,1.026
19.798,24.66,51.15,1000.21,0.000000,0.000000,0.00,0,1,1.0239,-0.0427,-0.0961,1.8321,-0.7023,2.7023,1.029
19.804,24.66,51.15,1000.21,0.000000,0.000000,0.00,0,1,1.0205,-0.0341,-0.0898,2.5878,-0.3969,2.7405,1.025
19.810,24.66,51.15,1000.21,0.000000,0.000000,0.00,0,1,1.0234,-0.0366,-0.0815,2.8855,-0.1221,2.2824,1.027
19.816,24.66,51.15,1000.21,0.000000,0.000000,0.00,0,1,1.0286,-0.0366,-0.0910,3.0229,0.1985,2.1832,1.033
19.822,24.66,51.15,1000.21,0.000000,0.000000,0.00,0,1,1.0259,-0.0317,-0.0908,3.0458,0.7481,2.2290,1.030
19.828,24.66,51.15,1000.21,0.000000,0.000000,0.00,0,1,1.0200,-0.0366,-0.0939,3.0611,0.9389,1.9237,1.025
19.834,24.66,51.15,1000.20,0.000000,0.000000,0.00,0,1,1.0176,-0.0378,-0.1187,2.5878,3.5191,0.9847,1.025
19.909,24.66,51.15,1000.20,0.000000,0.000000,0.00,0,1,1.0142,-0.0397,-0.1118,2.5878,3.5267,0.7252,1.021
19.930,24.66,51.15,1000.20,0.000000,0.000000,0.00,0,1,1.0032,-0.0273,-0.1050,2.9466,3.2901,0.8473,1.009
19.936,24.66,51.15,1000.20,0.000000,0.000000,0.00,0,1,1.0024,-0.0253,-0.1104,3.0458,3.2519,1.0687,1.009
19.942,24.66,51.15,1000.20,0.000000,0.000000,0.00,0,1,0.9990,-0.0256,-0.1074,3.0153,3.3588,1.0000,1.005
19.948,24.66,51.15,1000.20,0.000000,0.000000,0.00,0,1,1.0024,-0.0185,-0.1082,2.9008,3.3740,1.3664,1.008
19.954,24.66,51.15,1000.20,0.000000,0.000000,0.00,0,1,1.0005,-0.0251,-0.1050,2.6107,3.2366,0.9618,1.006
19.960,24.66,51.15,1000.20,0.000000,0.000000,0.00,0,1,1.0010,-0.0256,-0.1072,2.6641,3.0305,1.5038,1.007
19.966,24.66,51.15,1000.20,0.000000,0.000000,0.00,0,1,1.0093,-0.0166,-0.1152,2.1985,3.0611,1.6336,1.016
19.972,24.66,51.15,1000.20,0.000000,0.000000,0.00,0,1,1.0142,-0.0241,-0.1121,1.7481,3.0153,1.6947,1.021
19.978,24.68,51.18,1000.25,0.000000,0.000000,0.00,0,1,1.0188,-0.0285,-0.1099,1.4809,2.9771,1.9237,1.025
19.984,24.68,51.18,1000.25,0.000000,0.000000,0.00,0,1,1.0183,-0.0217,-0.1106,1.1603,2.9160,2.5496,1.025
20.045,24.68,51.18,1000.25,0.000000,0.000000,0.00,0,1,1.0142,-0.0461,-0.0998,0.8626,3.5649,4.1756,1.020
20.050,24.68,51.18,1000.25,0.000000,0.000000,0.00,0,1,1.0171,-0.0461,-0.0947,1.0000,3.6565,3.7786,1.023
20.057,24.68,51.18,1000.25,0.000000,0.000000,0.00,0,1,1.0095,-0.0493,-0.0974,0.9084,4.0153,3.4809,1.015
20.062,24.68,51.18,1000.25,0.000000,0.000000,0.00,0,1,1.0120,-0.0454,-0.1016,0.9771,3.9466,3.1145,1.018
20.068,24.68,51.18,1000.25,0.000000,0.000000,0.00,0,1,1.0107,-0.0459,-0.1062,1.1603,4.2977,2.8473,1.017
20.074,24.69,51.12,1000.28,0.000000,0.000000,0.00,0,1,1.0117,-0.0510,-0.1008,1.0611,4.3359,2.3817,1.018
20.080,24.69,51.12,1000.28,0.000000,0.000000,0.00,0,1,1.0122,-0.0461,-0.0844,1.2748,4.4733,1.9160,1.017
20.086,24.69,51.12,1000.28,0.000000,0.000000,0.00,0,1,1.0146,-0.0500,-0.0927,1.2366,4.5725,2.2290,1.020
20.092,24.69,51.12,1000.28,0.000000,0.000000,0.00,0,1,1.0144,-0.0473,-0.1008,1.2519,4.7176,1.4809,1.021
20.098,24.69,51.12,1000.28,0.000000,0.000000,0.00,0,1,1.0164,-0.0476,-0.0964,1.2672,4.4656,1.6565,1.022
20.236,24.67,51.13,1000.24,0.000000,0.000000,0.00,0,1,1.0212,-0.0456,-0.1021,0.0687,2.1603,2.4580,1.027
20.242,24.67,51.13,1000.24,0.000000,0.000000,0.00,0,1,1.0190,-0.0505,-0.0961,0.1374,2.1603,2.8550,1.025
20.248,24.67,51.13,1000.24,0.000000,0.000000,0.00,0,1,1.0217,-0.0498,-0.0927,0.0381,2.1985,2.8015,1.027
20.254,24.67,51.13,1000.24,0.000000,0.000000,0.00,0,1,1.0193,-0.0495,-0.0964,-0.0381,2.1603,2.6565,1.025
20.259,24.67,51.13,1000.24,0.000000,0.000000,0.00,0,1,1.0242,-0.0488,-0.0920,0.1298,2.3053,3.0534,1.029
20.265,24.67,51.13,1000.27,0.000000,0.000000,0.00,0,1,1.0173,-0.0534,-0.1035,-0.1908,2.3511,3.0382,1.024
20.271,24.70,51.11,1000.27,0.000000,0.000000,0.00,0,1,1.0212,-0.0505,-0.0893,-0.2443,2.3359,3.0534,1.026
20.277,24.70,51.11,1000.27,0.000000,0.000000,0.00,0,1,1.0181,-0.0468,-0.0930,-0.2366,2.3740,3.3435,1.023
20.283,24.70,51.11,1000.27,0.000000,0.000000,0.00,0,1,1.0239,-0.0512,-0.0864,-0.0229,2.4427,3.2748,1.029
20.289,24.70,51.11,1000.27,0.000000,0.000000,0.00,0,1,1.0239,-0.0468,-0.0871,-0.2214,2.7252,3.5038,1.029
20.312,24.70,51.11,1000.27,0.000000,0.000000,0.00,0,1,1.0098,-0.0573,-0.0788,0.3435,3.1756,3.6718,1.014
20.318,24.70,51.11,1000.27,0.000000,0.000000,0.00,0,1,1.0083,-0.0551,-0.0717,0.3969,3.3053,3.7328,1.012
20.324,24.70,51.11,1000.27,0.000000,0.000000,0.00,0,1,1.0129,-0.0566,-0.0861,0.8550,3.4427,3.6718,1.018
20.330,24.70,51.11,1000.27,0.000000,0.000000,0.00,0,1,1.0049,-0.0585,-0.0817,1.0153,3.4962,3.8779,1.010
20.336,24.70,51.11,1000.27,0.000000,0.000000,0.00,0,1,1.0125,-0.0651,-0.0849,1.0687,3.4198,3.6794,1.018
20.342,24.70,51.11,1000.27,0.000000,0.000000,0.00,0,1,1.0107,-0.0656,-0.0932,1.3969,3.4656,3.6641,1.017
20.348,24.70,51.11,1000.27,0.000000,0.000000,0.00,0,1,1.0078,-0.0632,-0.0839,1.5802,3.3893,3.6794,1.013
20.354,24.70,51.11,1000.27,0.000000,0.000000,0.00,0,1,1.0132,-0.0654,-0.0847,1.4809,3.3206,3.7481,1.019
20.360,24.70,51.11,1000.27,0.000000,0.000000,0.00,0,1,1.0193,-0.0708,-0.0900,1.8855,1.2290,2.5267,1.026
20.435,24.68,51.16,1000.23,0.000000,0.000000,0.00,0,1,1.0210,-0.0756,-0.0927,1.8321,1.2214,2.4427,1.028
20.457,24.68,51.16,1000.23,0.000000,0.000000,0.00,0,1,1.0156,-0.0817,-0.0927,1.6870,1.0916,1.4962,1.023
20.463,24.70,51.09,1000.25,0.000000,0.000000,0.00,0,1,1.0176,-0.0676,-0.0947,1.5954,1.3969,1.4962,1.024
20.469,24.70,51.09,1000.25,0.000000,0.000000,0.00,0,1,1.0198,-0.0766,-0.0993,1.1985,1.3511,0.9542,1.027
20.475,24.70,51.09,1000.25,0.000000,0.000000,0.00,0,1,1.0195,-0.0590,-0.1023,0.9313,1.3511,0.8244,1.026
20.481,24.70,51.09,1000.25,0.000000,0.000000,0.00,0,1,1.0178,-0.0671,-0.1001,0.7023,2.4962,1.8473,1.025
20.555,24.70,51.09,1000.25,0.000000,0.000000,0.00,0,1,1.0156,-0.0712,-0.0937,0.8550,2.8244,2.0763,1.022
20.561,24.69,51.12,1000.24,0.000000,0.000000,0.00,0,1,1.0168,-0.0659,-0.0959,0.7328,2.9695,2.2290,1.023
20.567,24.69,51.12,1000.24,0.000000,0.000000,0.00,0,1,1.0198,-0.0666,-0.0813,0.4809,3.0229,2.2366,1.025
20.573,24.69,51.12,1000.24,0.000000,0.000000,0.00,0,1,1.0181,-0.0752,-0.0920,0.5725,3.3130,2.1985,1.025
20.579,24.69,51.12,1000.24,0.000000,0.000000,0.00,0,1,1.0205,-0.0742,-0.0961,0.5038,3.4351,2.2672,1.028
20.766,24.70,51.10,1000.27,0.000000,0.000000,0.00,0,1,1.0125,-0.0737,-0.0922,0.8855,-0.2672,-0.6947,1.019
20.772,24.70,51.10,1000.27,0.000000,0.000000,0.00,0,1,1.0146,-0.0761,-0.0986,0.6794,-0.4580,-0.6336,1.022
20.778,24.70,51.10,1000.27,0.000000,0.000000,0.00,0,1,1.0222,-0.0769,-0.0854,0.8244,-0.0381,-0.7634,1.029
20.784,24.70,51.10,1000.27,0.000000,0.000000,0.00,0,1,1.0132,-0.0808,-0.0815,1.0840,-0.1069,-0.5725,1.020
20.790,24.70,51.10,1000.30,0.000000,0.000000,0.00,0,1,1.0122,-0.0747,-0.0952,2.6947,1.8321,-0.0687,1.019
20.865,24.68,51.10,1000.26,0.000000,0.000000,0.00,0,1,1.0122,-0.0791,-0.0935,2.6260,1.8244,-0.1450,1.020
20.871,24.68,51.10,1000.26,0.000000,0.000000,0.00,0,1,1.0146,-0.0708,-0.0932,2.7939,1.7710,0.0076,1.021
20.877,24.68,51.10,1000.26,0.000000,0.000000,0.00,0,1,1.0105,-0.0737,-0.1038,2.9771,1.9389,-0.1756,1.018
20.883,24.68,51.10,1000.26,0.000000,0.000000,0.00,0,1,1.0068,-0.0742,-0.1018,2.9771,1.8092,0.0381,1.015
20.889,24.68,51.10,1000.26,0.000000,0.000000,0.00,0,1,1.0098,-0.0690,-0.0981,2.9008,1.6489,-0.2137,1.017
20.967,24.68,51.10,1000.23,0.000000,0.000000,0.00,0,1,1.0139,-0.0615,-0.0886,1.4275,0.6718,0.0381,1.020
20.973,24.68,51.10,1000.23,0.000000,0.000000,0.00,0,1,1.0134,-0.0725,-0.0852,1.4427,0.6947,0.0534,1.020
20.979,24.68,51.10,1000.23,0.000000,0.000000,0.00,0,1,1.0190,-0.0683,-0.0900,1.4046,0.7863,-0.0839,1.025
20.985,24.68,51.10,1000.23,0.000000,0.000000,0.00,0,1,1.0068,-0.0730,-0.0942,1.1527,0.5267,-0.1221,1.014
20.991,24.68,51.10,1000.23,0.000000,0.000000,0.00,0,1,1.0190,-0.0647,-0.0903,1.2137,0.7023,0.1374,1.025
20.997,24.68,51.10,1000.23,0.000000,0.000000,0.00,0,1,1.0112,-0.0742,-0.0918,1.2137,0.9618,0.2290,1.018
21.003,24.68,51.10,1000.23,0.000000,0.000000,0.00,0,1,1.0144,-0.0771,-0.0944,1.1908,0.7405,0.4275,1.022
21.009,24.68,51.10,1000.23,0.000000,0.000000,0.00,0,1,1.0176,-0.0710,-0.1001,1.3893,0.6260,0.3817,1.025
21.015,24.68,51.10,1000.23,0.000000,0.000000,0.00,0,1,1.0203,-0.0693,-0.0932,1.6260,0.7863,0.3130,1.027
21.021,24.68,51.13,1000.25,0.000000,0.000000,0.00,0,1,1.0156,-0.0773,-0.0922,1.3664,1.8015,-0.1679,1.023
21.117,24.69,51.13,1000.25,0.000000,0.000000,0.00,0,1,1.0056,-0.0708,-0.0937,1.2061,2.1908,0.0076,1.012
21.123,24.69,51.13,1000.25,0.000000,0.000000,0.00,0,1,1.0129,-0.0752,-0.1011,1.2443,2.1679,-0.0381,1.021
21.129,24.69,51.13,1000.25,0.000000,0.000000,0.00,0,1,1.0139,-0.0703,-0.0883,1.2748,1.9008,-0.0381,1.020
21.135,24.69,51.13,1000.25,0.000000,0.000000,0.00,0,1,1.0129,-0.0720,-0.0896,1.3511,1.9084,0.1908,1.019
21.141,24.69,51.13,1000.25,0.000000,0.000000,0.00,0,1,1.0076,-0.0747,-0.0925,1.2748,1.8931,0.2137,1.015
21.147,24.71,51.08,1000.26,0.000000,0.000000,0.00,0,1,1.0107,-0.0734,-0.0803,1.3435,1.8321,0.2672,1.017
21.153,24.71,51.08,1000.26,0.000000,0.000000,0.00,0,1,1.0117,-0.0730,-0.0808,1.5267,1.6947,0.4809,1.018
21.159,24.71,51.08,1000.26,0.000000,0.000000,0.00,0,1,1.0120,-0.0732,-0.0849,1.7328,1.6718,0.6260,1.018
21.165,24.71,51.08,1000.26,0.000000,0.000000,0.00,0,1,1.0139,-0.0754,-0.0939,1.8702,1.5725,0.6641,1.021
21.171,24.71,51.08,1000.26,0.000000,0.000000,0.00,0,1,1.0164,-0.0725,-0.0932,2.0000,1.4504,0.6183,1.023
21.236,24.71,51.08,1000.26,0.000000,0.000000,0.00,0,1,1.0117,-0.0715,-0.0998,1.3893,1.4198,-0.1298,1.019
21.242,24.68,51.10,1000.22,0.000000,0.000000,0.00,0,1,1.0212,-0.0698,-0.0935,1.7634,1.6870,0.3817,1.028
21.319,24.68,51.10,1000.22,0.000000,0.000000,0.00,0,1,1.0149,-0.0739,-0.0900,1.8626,1.5420,0.2061,1.022
21.325,24.68,51.10,1000.22,0.000000,0.000000,0.00,0,1,1.0154,-0.0717,-0.0898,1.9542,1.6794,0.2748,1.022
21.330,24.68,51.10,1000.22,0.000000,0.000000,0.00,0,1,1.0178,-0.0793,-0.0964,1.8321,1.5878,0.5649,1.025
21.336,24.68,51.10,1000.22,0.000000,0.000000,0.00,0,1,1.0122,-0.0727,-0.1025,1.9084,1.5725,0.1527,1.020
21.343,24.71,51.12,1000.28,0.000000,0.000000,0.00,0,1,1.0112,-0.0730,-0.0932,1.8626,1.7099,0.1603,1.018
21.349,24.71,51.12,1000.28,0.000000,0.000000,0.00,0,1,1.0020,-0.0813,-0.0986,2.0153,1.4733,0.0992,1.010
21.355,24.71,51.12,1000.28,0.000000,0.000000,0.00,0,1,1.0095,-0.0788,-0.0944,1.9695,1.5573,0.1145,1.017
21.361,24.71,51.12,1000.28,0.000000,0.000000,0.00,0,1,1.0134,-0.0744,-0.0900,1.8321,1.5954,0.0076,1.020
21.496,24.69,51.05,1000.23,0.000000,0.000000,0.00,0,1,1.0078,-0.0786,-0.0900,1.9084,1.7481,0.1756,1.015
21.502,24.69,51.05,1000.23,0.000000,0.000000,0.00,0,1,1.0044,-0.0734,-0.0937,1.6565,1.8092,0.0381,1.011
21.508,24.69,51.05,1000.23,0.000000,0.000000,0.00,0,1,1.0159,-0.0752,-0.1033,1.8855,2.0000,-0.0229,1.024
21.514,24.69,51.05,1000.23,0.000000,0.000000,0.00,0,1,1.0051,-0.0791,-0.0976,1.7710,1.6947,0.0763,1.013
21.520,24.69,51.05,1000.23,0.000000,0.000000,0.00,0,1,0.9980,-0.0712,-0.0954,1.6718,1.6947,0.1298,1.005
21.526,24.69,51.05,1000.23,0.000000,0.000000,0.00,0,1,1.0193,-0.0761,-0.0993,1.3435,2.0763,0.2061,1.027
21.532,24.69,51.08,1000.28,0.000000,0.000000,0.00,0,1,1.0247,-0.0752,-0.0883,1.8473,1.6565,0.3282,1.031
21.607,24.71,51.08,1000.28,0.000000,0.000000,0.00,0,1,1.0115,-0.0776,-0.0825,1.5573,1.8015,0.5115,1.018
21.613,24.71,51.08,1000.28,0.000000,0.000000,0.00,0,1,1.0200,-0.0739,-0.0869,1.7481,1.7481,0.3130,1.026
21.619,24.71,51.08,1000.28,0.000000,0.000000,0.00,0,1,1.0129,-0.0859,-0.0825,1.5496,1.7634,0.1450,1.020
21.691,24.72,51.04,1000.27,0.000000,0.000000,0.00,0,1,1.0171,-0.0727,-0.0866,2.2977,1.9160,-0.0229,1.023
21.697,24.72,51.04,1000.27,0.000000,0.000000,0.00,0,1,1.0142,-0.0725,-0.0947,2.1756,1.6794,0.0076,1.021
21.703,24.72,51.04,1000.27,0.000000,0.000000,0.00,0,1,1.0198,-0.0771,-0.0903,2.3359,1.5496,0.1069,1.027
21.709,24.72,51.04,1000.27,0.000000,0.000000,0.00,0,1,0.9922,-0.0732,-0.0878,2.0611,1.4198,0.0229,0.999
21.715,24.72,51.04,1000.27,0.000000,0.000000,0.00,0,1,0.9902,-0.0730,-0.0920,1.9618,1.4656,0.0763,0.997
21.721,24.72,51.04,1000.27,0.000000,0.000000,0.00,0,1,0.9961,-0.0671,-0.0822,1.9008,1.6794,0.2366,1.002
21.727,24.72,51.04,1000.28,0.000000,0.000000,0.00,0,1,1.0408,-0.0734,-0.0961,1.6641,1.7176,0.1298,1.048
21.733,24.72,51.02,1000.28,0.000000,0.000000,0.00,0,1,1.0288,-0.0810,-0.1108,1.6870,1.3206,0.1832,1.038
21.739,24.72,51.02,1000.28,0.000000,0.000000,0.00,0,1,1.0071,-0.0727,-0.0910,1.5878,1.2214,0.1603,1.014
21.745,24.72,51.02,1000.28,0.000000,0.000000,0.00,0,1,1.0117,-0.0730,-0.0874,1.4275,1.3588,0.0305,1.018
21.824,24.72,51.02,1000.28,0.000000,0.000000,0.00,0,1,1.0132,-0.0734,-0.0910,1.4733,1.9542,0.0000,1.020
21.830,24.70,51.01,1000.25,0.000000,0.000000,0.00,0,1,1.0129,-0.0771,-0.0852,1.6718,2.0000,0.1603,1.019
21.836,24.70,51.01,1000.25,0.000000,0.000000,0.00,0,1,1.0173,-0.0715,-0.0844,1.7023,2.1756,0.3282,1.023
21.842,24.70,51.01,1000.25,0.000000,0.000000,0.00,0,1,1.0120,-0.0766,-0.0932,1.8855,2.1679,0.3969,1.019
21.848,24.70,51.01,1000.25,0.000000,0.000000,0.00,0,1,1.0098,-0.0717,-0.0979,2.1603,2.1374,0.3511,1.017
21.854,24.70,51.01,1000.25,0.000000,0.000000,0.00,0,1,1.0139,-0.0766,-0.0932,2.1145,2.3359,0.6336,1.021
21.860,24.70,51.01,1000.25,0.000000,0.000000,0.00,0,1,1.0110,-0.0730,-0.0925,2.1298,2.3511,0.5038,1.018
21.866,24.70,51.01,1000.25,0.000000,0.000000,0.00,0,1,1.0090,-0.0715,-0.1023,2.0687,2.3740,0.5038,1.017
21.872,24.70,51.01,1000.25,0.000000,0.000000,0.00,0,1,1.0137,-0.0778,-0.0915,2.0000,2.4504,0.4580,1.021
21.878,24.70,51.01,1000.25,0.000000,0.000000,0.00,0,1,1.0100,-0.0710,-0.0991,2.0458,2.3893,0.2672,1.017
21.900,24.70,51.01,1000.23,0.000000,0.000000,0.00,0,1,1.0178,-0.0747,-0.0969,1.2824,1.0992,-0.0381,1.025
21.975,24.69,51.04,1000.23,0.000000,0.000000,0.00,0,1,1.0151,-0.0739,-0.0944,1.4885,1.3053,0.1069,1.022
21.981,24.69,51.02,1000.26,0.000000,0.000000,0.00,0,1,1.0154,-0.0734,-0.0979,1.7939,1.3817,-0.1374,1.023
22.054,24.72,51.02,1000.26,0.000000,0.000000,0.00,0,1,1.0132,-0.0739,-0.0842,1.9847,1.3969,-0.2901,1.019
22.060,24.72,51.02,1000.26,0.000000,0.000000,0.00,0,1,1.0156,-0.0783,-0.0898,1.8626,1.3817,-0.1298,1.023
22.066,24.72,51.02,1000.26,0.000000,0.000000,0.00,0,1,1.0085,-0.0737,-0.0788,1.7557,1.5115,-0.3282,1.014
22.072,24.72,51.02,1000.26,0.000000,0.000000,0.00,0,1,1.0146,-0.0754,-0.0939,1.9695,1.5954,-0.5344,1.022
22.078,24.72,51.02,1000.26,0.000000,0.000000,0.00,0,1,1.0149,-0.0700,-0.0910,1.8855,1.6260,-0.5725,1.021
22.084,24.72,51.02,1000.26,0.000000,0.000000,0.00,0,1,1.0149,-0.0703,-0.0991,1.9466,1.5115,-0.3969,1.022
22.090,24.72,51.02,1000.26,0.000000,0.000000,0.00,0,1,1.0137,-0.0756,-0.0922,1.6260,1.6718,-0.2977,1.021
22.216,24.72,51.00,1000.27,0.000000,0.000000,0.00,0,1,1.0190,-0.0651,-0.0878,1.0229,1.8092,0.6718,1.025
22.222,24.72,51.00,1000.27,0.000000,0.000000,0.00,0,1,1.0144,-0.0644,-0.0905,1.0458,1.9160,0.8779,1.020
22.228,24.72,51.00,1000.27,0.000000,0.000000,0.00,0,1,1.0164,-0.0715,-0.0942,0.8092,1.7710,1.1145,1.023
22.234,24.72,51.00,1000.27,0.000000,0.000000,0.00,0,1,1.0171,-0.0739,-0.0891,0.9542,1.8702,0.9542,1.024
22.240,24.72,51.00,1000.27,0.000000,0.000000,0.00,0,1,1.0127,-0.0788,-0.0805,0.8015,1.8855,0.9008,1.019
22.246,24.72,51.00,1000.27,0.000000,0.000000,0.00,0,1,1.0176,-0.0761,-0.0947,0.7863,2.0916,1.0992,1.025
22.251,24.72,51.00,1000.27,0.000000,0.000000,0.00,0,1,1.0168,-0.0722,-0.0856,0.9008,1.9313,0.9771,1.023
22.258,24.72,51.00,1000.27,0.000000,0.000000,0.00,0,1,1.0127,-0.0778,-0.0861,1.0382,1.8855,0.9618,1.019
22.263,24.72,51.00,1000.27,0.000000,0.000000,0.00,0,1,1.0120,-0.0800,-0.0832,1.1908,1.9618,0.9237,1.019
22.269,24.72,51.00,1000.27,0.000000,0.000000,0.00,0,1,1.0159,-0.0756,-0.0888,1.4351,2.2366,0.8702,1.023
22.418,24.72,50.99,1000.25,0.000000,0.000000,0.00,0,1,1.0151,-0.0813,-0.1003,1.4046,1.2748,-0.2595,1.023
22.424,24.72,50.99,1000.25,0.000000,0.000000,0.00,0,1,1.0181,-0.0776,-0.0974,1.4580,1.2595,-0.3435,1.026
22.430,24.72,50.99,1000.25,0.000000,0.000000,0.00,0,1,1.0098,-0.0805,-0.0905,1.4809,1.2672,-0.3206,1.017
22.436,24.72,50.99,1000.25,0.000000,0.000000,0.00,0,1,1.0127,-0.0844,-0.0944,1.6718,1.2519,-0.4809,1.021
22.442,24.72,50.99,1000.21,0.000000,0.000000,0.00,0,1,1.0129,-0.0715,-0.0964,1.9924,1.5420,0.3740,1.020
22.516,24.69,50.99,1000.21,0.000000,0.000000,0.00,0,1,1.0173,-0.0754,-0.0888,1.9695,1.6031,0.2519,1.024
22.522,24.69,50.99,1000.21,0.000000,0.000000,0.00,0,1,1.0120,-0.0800,-0.0988,1.9847,1.6031,-0.3588,1.020
22.597,24.69,50.99,1000.21,0.000000,0.000000,0.00,0,1,1.0203,-0.0734,-0.0881,1.8550,1.4504,-0.2672,1.027
22.603,24.69,50.99,1000.21,0.000000,0.000000,0.00,0,1,1.0149,-0.0786,-0.1006,1.7023,1.4656,-0.3740,1.023
22.609,24.72,50.95,1000.27,0.000000,0.000000,0.00,0,1,1.0125,-0.0695,-0.0998,1.7634,1.5267,-0.3206,1.020
22.746,24.72,50.97,1000.27,0.000000,0.000000,0.00,0,1,1.0164,-0.0725,-0.0844,1.8244,1.8931,-0.4275,1.022
22.752,24.72,50.97,1000.27,0.000000,0.000000,0.00,0,1,1.0066,-0.0744,-0.0886,1.8168,1.8244,-0.0763,1.013
22.758,24.72,50.97,1000.27,0.000000,0.000000,0.00,0,1,1.0095,-0.0737,-0.0944,1.7710,1.8244,-0.1679,1.017
22.764,24.72,50.97,1000.27,0.000000,0.000000,0.00,0,1,1.0129,-0.0773,-0.0859,1.7939,1.7252,-0.2824,1.020
22.770,24.72,50.97,1000.27,0.000000,0.000000,0.00,0,1,1.0129,-0.0754,-0.0927,1.8092,1.7863,-0.0610,1.020
22.775,24.72,50.97,1000.27,0.000000,0.000000,0.00,0,1,1.0168,-0.0803,-0.0893,1.9389,1.6565,0.1527,1.024
22.781,24.72,50.97,1000.27,0.000000,0.000000,0.00,0,1,1.0115,-0.0822,-0.0883,1.9466,1.4046,0.2977,1.019
22.787,24.72,50.97,1000.27,0.000000,0.000000,0.00,0,1,1.0134,-0.0791,-0.0935,2.0992,1.5267,0.2595,1.021
22.793,24.72,50.97,1000.27,0.000000,0.000000,0.00,0,1,1.0100,-0.0769,-0.1023,1.9924,1.3740,0.2977,1.018
22.799,24.72,50.97,1000.27,0.000000,0.000000,0.00,0,1,1.0112,-0.0817,-0.0957,2.1221,1.4427,0.3588,1.019
22.821,24.73,50.92,1000.28,0.000000,0.000000,0.00,0,1,1.0120,-0.0747,-0.0964,1.7099,1.3969,0.4962,1.019
22.827,24.73,50.92,1000.28,0.000000,0.000000,0.00,0,1,1.0129,-0.0717,-0.0908,1.5496,1.3893,0.2061,1.020
22.833,24.73,50.92,1000.28,0.000000,0.000000,0.00,0,1,1.0093,-0.0769,-0.1038,1.4275,1.3206,0.3893,1.018
22.839,24.73,50.92,1000.28,0.000000,0.000000,0.00,0,1,1.0110,-0.0732,-0.0942,1.6336,1.4275,0.2137,1.018
22.845,24.73,50.92,1000.28,0.000000,0.000000,0.00,0,1,1.0144,-0.0717,-0.0971,1.5878,1.4580,-0.0305,1.022
22.851,24.73,50.92,1000.28,0.000000,0.000000,0.00,0,1,1.0195,-0.0686,-0.0954,1.4580,1.5420,0.1145,1.026
22.857,24.73,50.92,1000.28,0.000000,0.000000,0.00,0,1,1.0168,-0.0783,-0.1008,1.3206,1.6336,-0.0687,1.025
22.863,24.73,50.92,1000.28,0.000000,0.000000,0.00,0,1,1.0176,-0.0783,-0.0969,1.4656,1.5649,0.0152,1.025
22.869,24.73,50.92,1000.28,0.000000,0.000000,0.00,0,1,1.0205,-0.0695,-0.0942,1.4427,1.7405,-0.2366,1.027
22.875,24.71,50.94,1000.22,0.000000,0.000000,0.00,0,1,1.0120,-0.0676,-0.0856,1.5573,2.2901,0.5573,1.018
22.987,24.71,50.94,1000.22,0.000000,0.000000,0.00,0,1,1.0132,-0.0773,-0.0876,1.9389,2.1756,0.4580,1.020
22.993,24.71,50.94,1000.22,0.000000,0.000000,0.00,0,1,1.0146,-0.0759,-0.0925,1.9542,2.2595,0.3817,1.022
22.999,24.73,50.94,1000.27,0.000000,0.000000,0.00,0,1,1.0176,-0.0722,-0.0920,1.9542,2.0840,0.3817,1.024
23.005,24.73,50.94,1000.27,0.000000,0.000000,0.00,0,1,1.0125,-0.0754,-0.0856,1.8855,1.9160,0.5420,1.019
23.011,24.73,50.94,1000.27,0.000000,0.000000,0.00,0,1,1.0183,-0.0737,-0.0878,1.8931,2.0153,0.5344,1.025
23.017,24.73,50.94,1000.27,0.000000,0.000000,0.00,0,1,1.0183,-0.0795,-0.0795,1.6641,1.7176,0.4962,1.025
23.023,24.73,50.94,1000.27,0.000000,0.000000,0.00,0,1,1.0186,-0.0722,-0.0844,1.6947,1.6412,0.6947,1.025
23.029,24.73,50.94,1000.27,0.000000,0.000000,0.00,0,1,1.0215,-0.0798,-0.0961,1.5267,1.5573,0.7634,1.029
23.035,24.73,50.94,1000.27,0.000000,0.000000,0.00,0,1,1.0142,-0.0781,-0.0808,1.3817,1.3664,0.7023,1.020
23.041,24.73,50.94,1000.27,0.000000,0.000000,0.00,0,1,1.0103,-0.0756,-0.0883,1.1527,1.3130,0.3893,1.017
23.256,24.73,50.93,1000.26,0.000000,0.000000,0.00,0,1,1.0151,-0.0825,-0.0786,1.6336,2.0458,0.1069,1.022
23.262,24.73,50.93,1000.26,0.000000,0.000000,0.00,0,1,1.0110,-0.0766,-0.0925,1.6107,1.9084,0.2290,1.018
23.267,24.73,50.93,1000.26,0.000000,0.000000,0.00,0,1,1.0149,-0.0854,-0.0817,1.7710,1.7786,0.2672,1.022
23.273,24.73,50.93,1000.26,0.000000,0.000000,0.00,0,1,1.0134,-0.0800,-0.0883,1.8244,1.6870,0.4046,1.020
23.279,24.73,50.93,1000.26,0.000000,0.000000,0.00,0,1,1.0112,-0.0752,-0.0859,1.9466,1.4885,0.2977,1.018
23.285,24.73,50.93,1000.26,0.000000,0.000000,0.00,0,1,1.0090,-0.0730,-0.0856,1.7786,1.4733,0.2214,1.015
23.291,24.73,51.02,1000.26,0.000000,0.000000,0.00,0,1,1.0168,-0.0739,-0.0866,1.9313,1.4656,0.3359,1.023
23.297,24.73,51.02,1000.26,0.000000,0.000000,0.00,0,1,1.0132,-0.0791,-0.0952,1.5573,1.2824,0.1374,1.021
23.303,24.73,51.02,1000.26,0.000000,0.000000,0.00,0,1,1.0188,-0.0859,-0.0947,1.4122,1.5267,0.4046,1.027
23.378,24.73,51.02,1000.26,0.000000,0.000000,0.00,0,1,1.0195,-0.0864,-0.0986,1.4122,1.4504,0.1908,1.028
23.496,24.73,50.92,1000.27,0.000000,0.000000,0.00,0,1,1.0144,-0.0747,-0.0939,1.0611,1.7099,-0.4122,1.021
23.570,24.73,50.92,1000.27,0.000000,0.000000,0.00,0,1,1.0161,-0.0778,-0.0869,1.1221,1.5954,-0.3282,1.023
23.576,24.73,50.92,1000.27,0.000000,0.000000,0.00,0,1,1.0154,-0.0781,-0.0952,1.3893,1.8168,-0.3435,1.023
23.582,24.73,50.91,1000.25,0.000000,0.000000,0.00,0,1,1.0154,-0.0759,-0.0932,1.4809,1.6794,0.0610,1.022
23.588,24.73,50.91,1000.25,0.000000,0.000000,0.00,0,1,1.0142,-0.0800,-0.0871,1.4122,1.4351,0.1450,1.021
23.594,24.73,50.91,1000.25,0.000000,0.000000,0.00,0,1,1.0154,-0.0771,-0.0918,1.6107,1.5573,0.2977,1.022
23.600,24.73,50.91,1000.25,0.000000,0.000000,0.00,0,1,1.0134,-0.0715,-0.0886,1.4962,1.5115,0.4962,1.020
23.606,24.73,50.91,1000.25,0.000000,0.000000,0.00,0,1,1.0127,-0.0752,-0.0918,1.5420,1.4962,0.5344,1.020
23.612,24.71,50.91,1000.24,0.000000,0.000000,0.00,0,1,1.0146,-0.0859,-0.0886,1.7328,2.4885,0.6565,1.022
23.687,24.71,50.91,1000.24,0.000000,0.000000,0.00,0,1,1.0107,-0.0752,-0.0922,1.7099,2.7099,0.7710,1.018
23.834,24.73,50.90,1000.27,0.000000,0.000000,0.00,0,1,1.0168,-0.0825,-0.0893,1.2901,1.5802,0.8473,1.024
23.840,24.73,50.90,1000.27,0.000000,0.000000,0.00,0,1,1.0159,-0.0927,-0.0913,1.4504,1.5038,0.6870,1.024
23.846,24.73,50.90,1000.27,0.000000,0.000000,0.00,0,1,1.0186,-0.0869,-0.0859,1.3130,1.7252,0.6794,1.026
23.852,24.73,50.90,1000.27,0.000000,0.000000,0.00,0,1,1.0203,-0.0935,-0.0883,1.2366,1.7557,0.5649,1.028
23.858,24.73,50.90,1000.27,0.000000,0.000000,0.00,0,1,1.0132,-0.0896,-0.0847,1.2137,1.8397,0.5649,1.021
23.864,24.73,50.90,1000.27,0.000000,0.000000,0.00,0,1,1.0107,-0.0913,-0.0849,1.5649,2.1145,0.4809,1.018
23.870,24.73,50.90,1000.27,0.000000,0.000000,0.00,0,1,1.0259,-0.0998,-0.0837,1.9695,2.1527,0.4885,1.034
23.876,24.74,50.89,1000.27,0.000000,0.000000,0.00,0,1,1.0149,-0.0847,-0.0883,2.3206,2.1145,0.1985,1.022
23.882,24.74,50.89,1000.27,0.000000,0.000000,0.00,0,1,1.0251,-0.0925,-0.0869,2.5649,2.1908,0.1145,1.033
23.888,24.74,50.89,1000.27,0.000000,0.000000,0.00,0,1,1.0225,-0.0966,-0.0986,2.8550,2.4733,-0.0229,1.032
24.036,24.72,50.90,1000.23,0.000000,0.000000,0.00,0,1,1.0188,-0.0864,-0.0905,1.7328,1.1450,0.4275,1.026
24.042,24.72,50.90,1000.23,0.000000,0.000000,0.00,0,1,1.0151,-0.0810,-0.0881,1.8015,1.2748,0.3206,1.022
24.048,24.72,50.90,1000.23,0.000000,0.000000,0.00,0,1,1.0139,-0.0886,-0.0883,1.7557,1.3969,0.2901,1.022
24.054,24.72,50.90,1000.23,0.000000,0.000000,0.00,0,1,1.0154,-0.0869,-0.0878,1.4962,1.7176,0.1603,1.023
24.060,24.72,50.90,1000.25,0.000000,0.000000,0.00,0,1,1.0159,-0.0835,-0.0847,2.0229,2.9618,-0.8397,1.023
24.134,24.74,50.95,1000.29,0.000000,0.000000,0.00,0,1,1.0198,-0.0888,-0.0827,2.0611,3.0840,-0.5115,1.027
24.140,24.74,50.95,1000.25,0.000000,0.000000,0.00,0,1,1.0107,-0.0861,-0.0888,2.8015,3.4733,-0.5038,1.018
24.214,24.75,50.87,1000.25,0.000000,0.000000,0.00,0,1,1.0134,-0.0888,-0.0954,2.9084,3.6947,-0.4885,1.022
24.220,24.75,50.87,1000.25,0.000000,0.000000,0.00,0,1,1.0066,-0.0935,-0.0937,2.7252,3.8931,-0.6412,1.015
24.226,24.75,50.87,1000.25,0.000000,0.000000,0.00,0,1,1.0083,-0.0800,-0.0886,2.6336,3.8855,-0.3511,1.015
24.269,24.75,50.87,1000.25,0.000000,0.000000,0.00,0,1,1.0198,-0.0752,-0.0915,2.3053,5.0763,-0.1679,1.027
24.275,24.75,50.87,1000.25,0.000000,0.000000,0.00,0,1,1.0161,-0.0722,-0.0935,2.1527,5.2824,0.0381,1.023
24.281,24.75,50.87,1000.25,0.000000,0.000000,0.00,0,1,1.0151,-0.0830,-0.0708,1.2595,9.1603,0.9695,1.021
24.357,24.75,50.87,1000.25,0.000000,0.000000,0.00,0,1,1.0176,-0.0832,-0.0769,0.8244,9.5649,0.7863,1.024
24.363,24.73,50.86,1000.23,0.000000,0.000000,0.00,0,1,1.0095,-0.0773,-0.0739,0.8702,9.8321,0.8397,1.015
24.369,24.73,50.86,1000.23,0.000000,0.000000,0.00,0,1,1.0068,-0.0800,-0.0788,0.9847,10.0153,0.7252,1.013
24.375,24.73,50.86,1000.23,0.000000,0.000000,0.00,0,1,1.0088,-0.0791,-0.0615,1.1985,10.0382,0.2824,1.014
24.381,24.73,50.86,1000.23,0.000000,0.000000,0.00,0,1,1.0073,-0.0822,-0.0651,1.1985,10.2824,0.5878,1.013
24.387,24.73,50.86,1000.23,0.000000,0.000000,0.00,0,1,1.0122,-0.0708,-0.0534,0.7634,10.1603,0.3817,1.016
24.393,24.73,50.86,1000.23,0.000000,0.000000,0.00,0,1,1.0076,-0.0778,-0.0600,0.8473,10.1527,0.3740,1.012
24.452,24.73,50.86,1000.23,0.000000,0.000000,0.00,0,1,1.0056,-0.0986,-0.0415,0.9847,4.9084,-0.0229,1.011
24.458,24.73,50.89,1000.21,0.000000,0.000000,0.00,0,1,0.9976,-0.0869,-0.0302,0.9542,4.0840,0.0839,1.002
24.464,24.72,50.89,1000.21,0.000000,0.000000,0.00,0,1,1.0010,-0.0947,-0.0332,1.2824,3.1069,-0.1374,1.006
24.470,24.72,50.89,1000.21,0.000000,0.000000,0.00,0,1,1.0037,-0.0898,-0.0356,1.3588,2.1832,0.0000,1.008
24.476,24.72,50.89,1000.21,0.000000,0.000000,0.00,0,1,1.0022,-0.0830,-0.0346,1.0840,1.4275,0.1374,1.006
24.482,24.72,50.89,1000.21,0.000000,0.000000,0.00,0,1,1.0056,-0.0886,-0.0305,0.7481,0.7481,-0.4504,1.010
24.488,24.72,50.89,1000.21,0.000000,0.000000,0.00,0,1,0.9995,-0.0839,-0.0336,0.7405,-0.1450,-0.3282,1.004
