Time_s,Temperature_C,Humidity_%,Pressure_hPa,Lat,Lng,Alt_m,Fix,Sats,AccelX_g,AccelY_g,AccelZ_g,GyroX_deg_s,GyroY_deg_s,GyroZ_deg_s,TotalAccel
2.612,25.99,46.48,1000.08,0.000000,0.000000,0.00,0,0,0.9824,-0.1301,-0.1375,-3.6260,1.6107,-7.5267,1.000
2.618,25.99,46.48,1000.08,0.000000,0.000000,0.00,0,0,0.9744,-0.1243,-0.1165,-3.3435,1.6031,-7.5115,0.989
2.624,25.99,46.48,1000.08,0.000000,0.000000,0.00,0,0,0.9731,-0.1277,-0.1357,-2.2824,1.5954,-7.4809,0.991
2.630,25.99,46.48,1000.08,0.000000,0.000000,0.00,0,0,0.9810,-0.1240,-0.1292,-1.6489,1.2748,-7.3359,0.997
2.636,25.99,46.47,1000.10,0.000000,0.000000,0.00,0,0,0.9795,-0.1292,-0.1152,-1.0229,1.3664,-7.3969,0.995
2.642,25.99,46.47,1000.10,0.000000,0.000000,0.00,0,0,0.9836,-0.1184,-0.1340,-0.2443,1.0687,-7.1450,1.000
2.648,25.99,46.47,1000.10,0.000000,0.000000,0.00,0,0,0.9790,-0.1130,-0.1287,0.8092,1.2443,-6.9389,0.994
2.654,25.99,46.47,1000.10,0.000000,0.000000,0.00,0,0,0.9814,-0.1062,-0.1301,1.2290,1.0611,-6.5649,0.996
2.660,25.99,46.47,1000.10,0.000000,0.000000,0.00,0,0,0.9812,-0.1042,-0.1436,1.6870,1.2290,-6.3588,0.997
2.666,-140.91,46.47,1000.10,0.000000,0.000000,0.00,0,0,0.9871,-0.1001,-0.1267,1.7481,1.1603,-6.1374,1.000
2.787,25.96,46.47,1000.04,0.000000,0.000000,0.00,0,0,1.0212,-0.0920,-0.1035,5.2824,0.9160,0.7405,1.031
2.793,25.96,46.47,1000.04,0.000000,0.000000,0.00,0,0,1.0293,-0.0949,-0.1174,4.9237,0.8702,0.8092,1.040
2.799,25.96,46.47,1000.04,0.000000,0.000000,0.00,0,0,1.0339,-0.0893,-0.1106,4.1908,0.7634,0.9313,1.044
2.805,25.96,46.47,1000.04,0.000000,0.000000,0.00,0,0,1.0403,-0.0944,-0.1082,3.5038,0.8397,1.1679,1.050
2.811,26.01,46.47,1000.09,0.000000,0.000000,0.00,0,0,1.0334,-0.1013,-0.1062,0.4504,-0.2519,1.9313,1.044
2.884,26.01,46.47,1000.09,0.000000,0.000000,0.00,0,0,1.0264,-0.1123,-0.1072,0.4962,-0.2824,1.8779,1.038
2.890,26.01,46.47,1000.09,0.000000,0.000000,0.00,0,0,1.0293,-0.1091,-0.1104,0.5649,-0.2214,2.0458,1.041
2.896,26.01,46.47,1000.09,0.000000,0.000000,0.00,0,0,1.0225,-0.1006,-0.1169,0.4504,-0.2137,2.2137,1.034
2.902,26.01,46.47,1000.09,0.000000,0.000000,0.00,0,0,1.0183,-0.1057,-0.1084,0.5267,-0.1603,2.4580,1.030
2.908,26.01,46.47,1000.09,0.000000,0.000000,0.00,0,0,1.0203,-0.0988,-0.1211,0.5954,0.0152,2.4351,1.032
2.992,26.01,46.49,1000.09,0.000000,0.000000,0.00,0,0,1.0122,-0.1113,-0.1143,1.2061,0.5649,4.9160,1.025
2.998,26.01,46.49,1000.09,0.000000,0.000000,0.00,0,0,1.0151,-0.1113,-0.1101,0.7481,0.7023,4.9008,1.027
3.004,26.01,46.49,1000.09,0.000000,0.000000,0.00,0,0,1.0068,-0.1152,-0.1074,0.1374,0.9389,5.1298,1.019
3.010,26.01,46.41,1000.09,0.000000,0.000000,0.00,0,0,0.9883,-0.1338,-0.1099,-0.8931,2.5573,4.4809,1.003
3.085,26.01,46.41,1000.09,0.000000,0.000000,0.00,0,0,0.9790,-0.1316,-0.1091,-1.0458,2.5038,4.4427,0.994
3.091,26.01,46.41,1000.09,0.000000,0.000000,0.00,0,0,0.9866,-0.1284,-0.1145,-1.1298,2.3435,4.2519,1.001
3.097,26.01,46.41,1000.09,0.000000,0.000000,0.00,0,0,0.9827,-0.1370,-0.1201,-1.3664,2.4198,3.9695,0.999
3.103,26.01,46.41,1000.09,0.000000,0.000000,0.00,0,0,0.9695,-0.1294,-0.1182,-1.1069,2.3588,3.9008,0.985
3.109,26.01,46.41,1000.09,0.000000,0.000000,0.00,0,0,0.9761,-0.1355,-0.1233,-1.1527,2.1374,3.7405,0.993
3.115,26.01,46.41,1000.09,0.000000,0.000000,0.00,0,0,0.9705,-0.1299,-0.1287,-1.0382,2.1527,3.5038,0.988
3.160,26.01,46.43,1000.09,0.000000,0.000000,0.00,0,0,1.0049,-0.1240,-0.1377,-0.5038,0.9847,3.5496,1.022
3.166,26.01,46.43,1000.09,0.000000,0.000000,0.00,0,0,0.9988,-0.1265,-0.1416,-0.2061,0.9847,3.5267,1.017
3.172,26.01,46.43,1000.09,0.000000,0.000000,0.00,0,0,0.9978,-0.1235,-0.1401,0.0534,0.7252,3.4885,1.015
3.178,26.01,46.43,1000.09,0.000000,0.000000,0.00,0,0,0.9976,-0.1289,-0.1509,0.2214,1.0305,3.5267,1.017
3.184,26.01,46.43,1000.09,0.000000,0.000000,0.00,0,0,0.9902,-0.1272,-0.1501,0.1145,0.8779,3.2748,1.010
3.190,26.01,46.43,1000.09,0.000000,0.000000,0.00,0,0,0.9966,-0.1316,-0.1409,-0.1374,0.6947,3.2901,1.015
3.196,26.01,46.43,1000.09,0.000000,0.000000,0.00,0,0,0.9976,-0.1252,-0.1401,-0.4122,0.5344,3.1985,1.015
3.202,26.01,46.43,1000.09,0.000000,0.000000,0.00,0,0,0.9949,-0.1272,-0.1365,-0.4046,0.3817,2.7557,1.012
3.208,26.01,46.43,1000.09,0.000000,0.000000,0.00,0,0,1.0024,-0.1313,-0.1436,-0.1603,0.2137,2.8397,1.021
3.214,26.01,46.43,1000.09,0.000000,0.000000,0.00,0,0,1.0085,-0.1306,-0.1389,-0.1069,0.1527,2.6641,1.026
3.280,26.01,46.42,1000.09,0.000000,0.000000,0.00,0,0,1.0103,-0.1333,-0.1333,2.7176,0.1832,1.0229,1.028
3.286,26.01,46.42,1000.09,0.000000,0.000000,0.00,0,0,1.0103,-0.1401,-0.1282,2.2061,0.0534,1.1985,1.028
3.292,26.01,46.42,1000.09,0.000000,0.000000,0.00,0,0,1.0107,-0.1406,-0.1316,1.5496,0.0610,0.9924,1.029
3.298,26.01,46.42,1000.09,0.000000,0.000000,0.00,0,0,1.0076,-0.1462,-0.1348,1.0916,0.0687,1.0153,1.027
3.304,26.01,46.42,1000.09,0.000000,0.000000,0.00,0,0,1.0046,-0.1453,-0.1265,1.3969,0.0458,0.7481,1.023
3.310,26.01,46.42,1000.09,0.000000,0.000000,0.00,0,0,1.0137,-0.1509,-0.1423,1.4198,0.0229,0.9695,1.035
3.316,26.01,46.42,1000.11,0.000000,0.000000,0.00,0,0,1.0105,-0.1416,-0.1331,1.5496,-0.1221,0.3969,1.029
3.322,26.01,46.48,1000.11,0.000000,0.000000,0.00,0,0,1.0090,-0.1450,-0.1282,1.6107,-0.2137,0.2061,1.027
3.328,26.01,46.48,1000.11,0.000000,0.000000,0.00,0,0,1.0156,-0.1418,-0.1213,1.1145,-0.1298,0.2824,1.033
3.334,26.01,46.48,1000.11,0.000000,0.000000,0.00,0,0,1.0200,-0.1460,-0.1204,0.5496,0.1603,0.1527,1.037
3.514,26.02,46.44,1000.13,0.000000,0.000000,0.00,0,0,0.9888,-0.1462,-0.1614,1.8779,0.0381,4.6260,1.012
3.520,26.02,46.44,1000.13,0.000000,0.000000,0.00,0,0,0.9905,-0.1494,-0.1479,1.7710,0.0687,4.4122,1.013
3.526,26.02,46.44,1000.13,0.000000,0.000000,0.00,0,0,0.9905,-0.1626,-0.1462,2.2214,0.3053,3.8931,1.014
3.532,26.02,46.44,1000.13,0.000000,0.000000,0.00,0,0,0.9927,-0.1614,-0.1299,2.7863,0.3053,3.1908,1.014
3.538,26.02,46.44,1000.13,0.000000,0.000000,0.00,0,0,0.9978,-0.1606,-0.1218,3.0611,0.6107,2.8397,1.018
3.545,26.02,46.44,1000.13,0.000000,0.000000,0.00,0,0,0.9963,-0.1536,-0.1150,2.9847,0.8168,2.5496,1.015
3.550,26.02,46.44,1000.13,0.000000,0.000000,0.00,0,0,0.9939,-0.1548,-0.1147,2.9389,0.8702,2.0000,1.012
3.556,26.02,46.44,1000.13,0.000000,0.000000,0.00,0,0,0.9858,-0.1521,-0.1147,2.3511,1.0840,1.6183,1.004
3.562,26.02,46.44,1000.13,0.000000,0.000000,0.00,0,0,0.9780,-0.1484,-0.1221,1.6336,1.3435,1.3511,0.997
3.568,26.02,46.44,1000.13,0.000000,0.000000,0.00,0,0,0.9727,-0.1448,-0.1194,0.8168,1.4656,0.8702,0.991
3.650,25.98,46.44,1000.03,0.000000,0.000000,0.00,0,0,1.0171,-0.1365,-0.1323,0.6641,0.3130,-1.3206,1.035
3.656,25.98,46.44,1000.03,0.000000,0.000000,0.00,0,0,1.0159,-0.1331,-0.1348,0.8550,0.1603,-1.5802,1.033
3.662,25.98,46.44,1000.03,0.000000,0.000000,0.00,0,0,1.0049,-0.1387,-0.1265,0.8702,-0.0305,-1.8397,1.022
3.668,25.98,46.44,1000.03,0.000000,0.000000,0.00,0,0,1.0022,-0.1370,-0.1416,1.0534,-0.2290,-1.9313,1.021
3.674,25.98,46.44,1000.03,0.000000,0.000000,0.00,0,0,1.0027,-0.1348,-0.1321,0.6183,-0.4198,-1.7634,1.020
3.680,25.98,46.44,1000.03,0.000000,0.000000,0.00,0,0,1.0049,-0.1331,-0.1375,0.5038,-0.3969,-1.9237,1.023
3.686,25.98,46.44,1000.03,0.000000,0.000000,0.00,0,0,1.0085,-0.1345,-0.1377,-0.0763,-0.4351,-2.2137,1.027
3.692,25.98,46.44,1000.03,0.000000,0.000000,0.00,0,0,1.0051,-0.1372,-0.1399,-0.3130,-0.5115,-2.2290,1.024
3.698,25.98,46.44,1000.03,0.000000,0.000000,0.00,0,0,1.0100,-0.1504,-0.1392,-0.1145,-0.4733,-2.4885,1.031
3.704,25.98,46.44,1000.03,0.000000,0.000000,0.00,0,0,1.0056,-0.1462,-0.1272,0.0381,-0.4046,-2.7405,1.024
3.782,26.02,46.43,1000.12,0.000000,0.000000,0.00,0,0,1.0049,-0.1401,-0.1399,2.7939,0.3282,-4.3511,1.024
3.788,26.02,46.43,1000.12,0.000000,0.000000,0.00,0,0,1.0015,-0.1372,-0.1321,2.2366,0.2901,-4.3130,1.019
3.794,26.02,46.43,1000.12,0.000000,0.000000,0.00,0,0,1.0071,-0.1394,-0.1296,2.1603,0.3740,-4.2214,1.025
3.800,26.02,46.43,1000.12,0.000000,0.000000,0.00,0,0,1.0154,-0.1296,-0.1411,1.9313,0.2977,-1.4580,1.033
3.875,26.02,46.43,1000.12,0.000000,0.000000,0.00,0,0,1.0142,-0.1340,-0.1367,1.7863,0.3511,-1.2672,1.032
3.881,26.02,46.43,1000.12,0.000000,0.000000,0.00,0,0,1.0139,-0.1348,-0.1533,1.8244,0.4962,-1.2824,1.034
3.887,26.02,46.43,1000.12,0.000000,0.000000,0.00,0,0,1.0122,-0.1343,-0.1379,1.7710,0.3053,-1.0763,1.030
3.893,26.02,46.43,1000.12,0.000000,0.000000,0.00,0,0,1.0107,-0.1355,-0.1438,1.6183,0.2901,-1.0458,1.030
3.898,26.02,46.43,1000.12,0.000000,0.000000,0.00,0,0,1.0115,-0.1343,-0.1396,1.5420,0.2519,-0.7786,1.030
3.904,26.02,46.39,1000.09,0.000000,0.000000,0.00,0,0,1.0127,-0.1311,-0.1450,1.5191,0.3588,-0.7023,1.031
4.055,26.02,46.42,1000.12,0.000000,0.000000,0.00,0,0,1.0374,-0.1240,-0.1367,1.2443,0.8855,-0.4504,1.054
4.145,26.02,46.42,1000.09,0.000000,0.000000,0.00,0,0,1.0093,-0.1274,-0.1492,2.5954,3.4275,0.1985,1.028
4.209,26.02,46.41,1000.11,0.000000,0.000000,0.00,0,0,1.0046,-0.1289,-0.1482,2.4962,2.4809,0.0076,1.024
4.224,26.02,46.41,1000.11,0.000000,0.000000,0.00,0,0,1.0088,-0.1318,-0.1440,2.3130,2.2901,0.2061,1.028
4.350,26.02,46.41,1000.11,0.000000,0.000000,0.00,0,0,1.0032,-0.1357,-0.1418,1.1374,0.3282,1.0840,1.022
4.515,26.02,46.40,1000.09,0.000000,0.000000,0.00,0,0,1.0120,-0.1221,-0.1426,2.1832,0.6260,0.3206,1.029
4.577,26.02,46.40,1000.09,0.000000,0.000000,0.00,0,0,1.0120,-0.1309,-0.1394,2.2443,2.1221,-0.5038,1.030
4.623,26.02,46.38,1000.10,0.000000,0.000000,0.00,0,0,1.0046,-0.1301,-0.1406,2.5267,2.9160,-0.6336,1.023
4.656,26.02,46.38,1000.10,0.000000,0.000000,0.00,0,0,1.0154,-0.1355,-0.1450,0.7328,2.4198,-0.4885,1.035
4.675,26.02,46.38,1000.10,0.000000,0.000000,0.00,0,0,1.0044,-0.1379,-0.1494,1.2214,2.2214,-0.8931,1.025
4.975,26.03,46.40,1000.13,0.000000,0.000000,0.00,0,0,1.0122,-0.1289,-0.1350,1.3206,1.2672,-0.1221,1.029
5.037,26.03,46.40,1000.13,0.000000,0.000000,0.00,0,0,1.0078,-0.1348,-0.1533,1.5267,2.3588,0.2519,1.028
5.176,26.03,46.39,1000.10,0.000000,0.000000,0.00,0,0,1.0200,-0.1226,-0.1521,1.7405,1.6641,-0.5649,1.039
5.182,26.03,46.39,1000.10,0.000000,0.000000,0.00,0,0,1.0203,-0.1257,-0.1455,1.8397,1.8092,-0.5420,1.038
5.188,26.03,46.39,1000.10,0.000000,0.000000,0.00,0,0,1.0271,-0.1174,-0.1353,1.7252,1.8168,-0.4962,1.043
5.194,26.03,46.39,1000.10,0.000000,0.000000,0.00,0,0,1.0449,-0.1218,-0.0683,1.3206,1.9008,0.5573,1.054
5.200,26.03,46.39,1000.10,0.000000,0.000000,0.00,0,0,1.1362,-0.0539,-0.3933,12.4580,5.1756,4.0687,1.204
5.206,26.03,46.39,1000.10,0.000000,0.000000,0.00,0,0,1.0571,-0.2952,0.0588,-2.9008,2.9466,-3.5267,1.099
5.212,26.03,46.39,1000.10,0.000000,0.000000,0.00,0,0,0.8960,-0.4248,-0.2988,2.6947,-2.3817,-3.4504,1.036
5.218,26.03,46.39,1000.10,0.000000,0.000000,0.00,0,0,0.9402,-0.1624,0.1565,2.0305,3.2672,0.8931,0.967
5.303,26.00,46.39,1000.05,0.000000,0.000000,0.00,0,0,0.9573,-0.2690,-0.2104,3.5725,-1.4580,6.2595,1.016
5.309,26.00,46.39,1000.05,0.000000,0.000000,0.00,0,0,1.0356,0.0227,-0.0817,1.5496,-3.9389,2.3053,1.039
5.315,26.00,46.39,1000.05,0.000000,0.000000,0.00,0,0,1.0662,-0.2332,0.0441,-0.0839,-1.4580,5.6641,1.092
5.321,26.00,46.39,1000.09,0.000000,0.000000,0.00,0,0,1.0105,0.0041,-0.2214,-3.9618,3.6947,-7.1527,1.034
5.399,26.03,46.39,1000.09,0.000000,0.000000,0.00,0,0,0.9663,-0.1294,-0.2458,-0.1832,1.5802,-5.4122,1.005
5.405,26.03,46.39,1000.09,0.000000,0.000000,0.00,0,0,1.0042,-0.0441,-0.1702,-0.5115,4.2519,-5.7023,1.019
5.411,26.03,46.39,1000.06,0.000000,0.000000,0.00,0,0,1.0227,-0.1328,-0.1262,2.2901,1.6641,-0.3053,1.039
5.486,26.03,46.39,1000.06,0.000000,0.000000,0.00,0,0,1.0220,-0.1423,-0.1370,1.6794,1.5496,-0.5344,1.041
5.492,26.03,46.39,1000.06,0.000000,0.000000,0.00,0,0,1.0129,-0.1533,-0.1294,1.3511,1.5573,0.0076,1.033
5.498,26.03,46.39,1000.06,0.000000,0.000000,0.00,0,0,1.0110,-0.1169,-0.1213,1.2061,1.4809,-0.2748,1.025
5.855,26.04,46.40,1000.09,0.000000,0.000000,0.00,0,0,1.0088,-0.1296,-0.1416,1.3893,2.6870,0.8931,1.027
5.861,26.04,46.40,1000.09,0.000000,0.000000,0.00,0,0,1.0093,-0.1375,-0.1543,1.4504,2.2061,0.8473,1.030
5.867,26.04,46.40,1000.09,0.000000,0.000000,0.00,0,0,1.0076,-0.1270,-0.1458,1.6565,2.0305,0.6718,1.026
5.873,26.04,46.40,1000.09,0.000000,0.000000,0.00,0,0,1.0061,-0.1228,-0.1299,1.9008,1.4427,0.7634,1.022
5.879,26.04,46.40,1000.09,0.000000,0.000000,0.00,0,0,0.9966,-0.1316,-0.1445,1.7710,0.5420,4.0305,1.016
5.953,26.01,46.41,1000.06,0.000000,0.000000,0.00,0,0,0.9863,-0.1294,-0.1106,6.1527,-2.6260,6.5496,1.001
6.028,26.01,46.41,1000.06,0.000000,0.000000,0.00,0,0,0.9819,-0.1516,-0.1230,4.3588,-3.0840,6.0000,1.001
6.034,26.04,46.39,1000.11,0.000000,0.000000,0.00,0,0,0.9414,-0.1563,-0.2161,2.8244,-1.6641,3.9313,0.978
6.108,26.04,46.39,1000.11,0.000000,0.000000,0.00,0,0,0.9075,-0.1775,-0.1960,1.6794,-1.7634,3.6718,0.945
6.114,26.04,46.39,1000.11,0.000000,0.000000,0.00,0,0,0.8977,-0.1250,-0.1958,1.0763,-0.9618,3.6794,0.927
6.193,26.04,46.39,1000.10,0.000000,0.000000,0.00,0,0,0.9888,-0.1848,-0.0979,12.6031,-4.2672,4.3817,1.011
6.199,26.04,46.39,1000.10,0.000000,0.000000,0.00,0,0,1.0554,-0.1890,0.0634,15.8779,-8.7099,3.5649,1.074
6.205,26.04,46.39,1000.10,0.000000,0.000000,0.00,0,0,1.0591,-0.2471,0.0744,19.1298,-14.8702,3.1069,1.090
6.211,26.04,46.39,1000.11,0.000000,0.000000,0.00,0,0,1.1067,-0.0593,-0.2510,22.6183,-19.4962,-5.9160,1.136
6.355,26.05,46.40,1000.11,0.000000,0.000000,0.00,0,0,1.1086,-0.0800,-0.2124,25.8931,-12.4122,-6.8855,1.132
6.360,26.05,46.40,1000.11,0.000000,0.000000,0.00,0,0,1.1030,-0.2249,-0.3918,-5.5878,3.2061,7.0153,1.192
6.435,26.05,46.40,1000.11,0.000000,0.000000,0.00,0,0,1.3293,-0.2834,-0.4604,-6.1985,5.9924,3.3664,1.435
6.441,26.04,46.38,1000.12,0.000000,0.000000,0.00,0,0,1.1785,-0.2686,-0.4216,-10.0687,6.9160,7.3817,1.280
6.447,26.04,46.38,1000.12,0.000000,0.000000,0.00,0,0,1.3650,-0.3625,-0.5662,-14.2366,12.3511,6.9924,1.522
6.453,26.04,46.38,1000.12,0.000000,0.000000,0.00,0,0,1.2615,-0.1262,-0.2798,-10.0763,13.3359,8.9389,1.298
6.796,26.05,46.40,1000.11,0.000000,0.000000,0.00,0,0,0.9910,-0.1465,-0.1550,-7.5267,7.2214,-3.5954,1.014
6.802,26.05,46.40,1000.11,0.000000,0.000000,0.00,0,0,1.0493,-0.1755,-0.2200,0.1069,5.1679,-3.0687,1.086
6.808,26.05,46.40,1000.11,0.000000,0.000000,0.00,0,0,1.0654,-0.1653,-0.2095,7.1221,2.9618,-2.2748,1.098
6.814,26.05,46.40,1000.11,0.000000,0.000000,0.00,0,0,1.0662,-0.1724,-0.1912,11.4427,1.8015,-2.0611,1.097
6.820,26.05,46.40,1000.11,0.000000,0.000000,0.00,0,0,1.0591,-0.1667,-0.1880,12.4580,1.3130,-2.0611,1.088
6.826,26.05,46.40,1000.11,0.000000,0.000000,0.00,0,0,0.9963,-0.1829,-0.1694,12.3359,0.8626,-2.7328,1.027
6.832,26.05,46.46,1000.11,0.000000,0.000000,0.00,0,0,1.0247,-0.2219,-0.1309,11.5038,1.2290,-2.9924,1.057
6.838,26.05,46.46,1000.11,0.000000,0.000000,0.00,0,0,0.9937,-0.1650,-0.2249,8.5267,2.2672,-3.3130,1.032
6.844,26.05,46.46,1000.11,0.000000,0.000000,0.00,0,0,1.0168,-0.2065,-0.1738,10.3893,1.6336,-4.8092,1.052
6.850,26.05,46.46,1000.11,0.000000,0.000000,0.00,0,0,1.0098,-0.1243,-0.2034,12.1679,1.4046,-4.8168,1.038
6.996,26.03,46.41,1000.07,0.000000,0.000000,0.00,0,0,0.9834,-0.1106,-0.1790,8.5573,5.2366,0.6336,1.006
7.002,26.03,46.41,1000.07,0.000000,0.000000,0.00,0,0,0.9897,-0.0937,-0.1921,10.2137,5.1985,0.9924,1.013
7.008,26.03,46.41,1000.07,0.000000,0.000000,0.00,0,0,0.9673,-0.0844,-0.1919,11.8550,4.9237,1.5115,0.990
7.014,26.03,46.41,1000.07,0.000000,0.000000,0.00,0,0,0.9712,-0.0798,-0.1667,12.9084,4.4809,1.4656,0.989
7.020,26.03,46.41,1000.13,0.000000,0.000000,0.00,0,0,1.0193,-0.1238,-0.1648,2.4809,10.3969,4.6260,1.040
7.095,26.06,46.34,1000.13,0.000000,0.000000,0.00,0,0,1.0068,-0.1274,-0.1558,2.4656,10.3053,4.5344,1.027
7.101,26.06,46.34,1000.13,0.000000,0.000000,0.00,0,0,1.0107,-0.1487,-0.1394,2.3740,10.5649,4.1298,1.031
7.107,26.06,46.34,1000.13,0.000000,0.000000,0.00,0,0,1.0066,-0.1582,-0.1189,2.1374,10.7099,3.2672,1.026
7.113,26.05,46.40,1000.10,0.000000,0.000000,0.00,0,0,0.9939,-0.1064,-0.1316,-0.8244,8.5191,-1.7405,1.008
7.188,26.05,46.40,1000.10,0.000000,0.000000,0.00,0,0,1.0117,-0.1238,-0.1677,-0.3053,8.0458,-1.8702,1.033
7.221,26.06,46.43,1000.10,0.000000,0.000000,0.00,0,0,0.9956,-0.1191,-0.1387,-1.3969,6.9008,-2.3893,1.012
7.227,26.06,46.43,1000.10,0.000000,0.000000,0.00,0,0,0.9924,-0.1169,-0.1411,-0.8397,6.3511,-2.6565,1.009
7.233,26.06,46.43,1000.10,0.000000,0.000000,0.00,0,0,0.9893,-0.1104,-0.1550,-0.3511,5.7710,-2.9466,1.007
7.239,26.06,46.43,1000.10,0.000000,0.000000,0.00,0,0,0.9812,-0.1138,-0.1418,0.2214,5.0153,-2.8397,0.998
7.245,26.06,46.43,1000.10,0.000000,0.000000,0.00,0,0,0.9849,-0.1038,-0.1353,0.0610,4.6260,-2.8244,1.000
7.251,26.06,46.43,1000.10,0.000000,0.000000,0.00,0,0,0.9861,-0.1003,-0.1292,0.3664,3.8244,-2.4733,1.000
7.257,26.06,46.43,1000.10,0.000000,0.000000,0.00,0,0,1.0042,-0.1082,-0.1343,-0.1450,3.2824,-2.6336,1.019
7.263,26.06,46.43,1000.10,0.000000,0.000000,0.00,0,0,1.0000,-0.0979,-0.1213,-0.6870,3.0382,-2.7557,1.012
7.269,26.06,46.43,1000.09,0.000000,0.000000,0.00,0,0,1.0166,-0.0737,-0.1563,-3.5954,3.1603,-1.1756,1.031
7.344,26.02,46.41,1000.03,0.000000,0.000000,0.00,0,0,1.0347,-0.0856,-0.1580,-4.0916,3.3130,-1.3511,1.050
7.491,26.06,46.41,1000.09,0.000000,0.000000,0.00,0,0,0.9949,-0.0957,-0.1479,5.6794,7.3817,0.4046,1.010
7.566,26.06,46.41,1000.09,0.000000,0.000000,0.00,0,0,0.9998,-0.1011,-0.1230,4.1985,7.6947,0.2290,1.012
7.571,26.06,46.41,1000.10,0.000000,0.000000,0.00,0,0,1.0562,-0.0856,-0.1631,0.5038,5.7405,1.5802,1.072
7.647,26.06,46.41,1000.10,0.000000,0.000000,0.00,0,0,1.0374,-0.0769,-0.1392,0.3130,5.7252,1.2595,1.049
7.653,26.05,46.40,1000.11,0.000000,0.000000,0.00,0,0,1.0398,-0.0742,-0.1265,1.6794,3.1221,2.7023,1.050
7.727,26.05,46.40,1000.11,0.000000,0.000000,0.00,0,0,1.0410,-0.0712,-0.1697,3.0076,3.1221,3.0382,1.057
7.733,26.05,46.40,1000.11,0.000000,0.000000,0.00,0,0,1.0398,-0.0520,-0.1831,4.4885,2.4656,3.1450,1.057
7.739,26.05,46.40,1000.11,0.000000,0.000000,0.00,0,0,1.0422,-0.0603,-0.1694,5.9542,2.5344,3.2443,1.058
7.745,26.05,46.40,1000.11,0.000000,0.000000,0.00,0,0,1.0410,-0.0739,-0.1631,6.8168,2.4351,2.9695,1.056
7.751,26.05,46.40,1000.05,0.000000,0.000000,0.00,0,0,0.9878,-0.1069,-0.1187,5.7786,2.4580,3.7557,1.001
7.953,26.06,46.40,1000.09,0.000000,0.000000,0.00,0,0,1.0459,-0.0849,-0.1746,2.0000,-1.4351,-4.5038,1.064
7.959,26.06,46.40,1000.09,0.000000,0.000000,0.00,0,0,1.0496,-0.0585,-0.1787,2.6947,-0.9084,-4.3740,1.066
7.965,26.06,46.40,1000.09,0.000000,0.000000,0.00,0,0,1.0535,-0.0705,-0.1875,3.2290,-0.7328,-4.5344,1.072
7.971,26.06,46.40,1000.09,0.000000,0.000000,0.00,0,0,1.0515,-0.0439,-0.1584,4.3053,-0.9542,-4.0000,1.064
7.976,26.06,46.40,1000.09,0.000000,0.000000,0.00,0,0,1.0374,-0.0849,-0.1743,3.2366,-0.3969,-3.9237,1.055
7.982,26.06,46.34,1000.08,0.000000,0.000000,0.00,0,0,1.0210,-0.0427,-0.1643,7.5573,0.4122,-2.4046,1.035
8.057,26.06,46.34,1000.08,0.000000,0.000000,0.00,0,0,1.0229,-0.0607,-0.1550,7.6183,0.5954,-1.9542,1.036
8.063,26.06,46.34,1000.08,0.000000,0.000000,0.00,0,0,1.0286,-0.0493,-0.1748,7.7481,0.7710,-1.9924,1.044
8.069,26.06,46.34,1000.08,0.000000,0.000000,0.00,0,0,1.0278,-0.0512,-0.1528,7.3359,0.9389,-2.0076,1.040
8.075,26.06,46.34,1000.08,0.000000,0.000000,0.00,0,0,1.0344,-0.0578,-0.1482,5.9542,1.2061,-2.4351,1.047
8.213,26.06,46.41,1000.08,0.000000,0.000000,0.00,0,0,1.0210,-0.0493,-0.1235,0.9924,3.5115,0.8702,1.030
8.219,26.06,46.41,1000.08,0.000000,0.000000,0.00,0,0,1.0125,-0.0510,-0.1404,0.7557,3.6870,1.3893,1.023
8.225,26.06,46.41,1000.08,0.000000,0.000000,0.00,0,0,1.0127,-0.0607,-0.1418,0.8702,3.4809,1.3969,1.024
8.230,26.06,46.41,1000.08,0.000000,0.000000,0.00,0,0,1.0254,-0.0795,-0.1448,1.2748,3.6260,1.5420,1.039
8.236,26.06,46.41,1000.08,0.000000,0.000000,0.00,0,0,1.0295,-0.0915,-0.1523,1.9237,3.5954,1.4427,1.045
8.242,26.06,46.41,1000.08,0.000000,0.000000,0.00,0,0,1.0239,-0.1040,-0.1428,2.5802,3.6870,1.5267,1.039
8.248,26.06,46.41,1000.08,0.000000,0.000000,0.00,0,0,1.0366,-0.0837,-0.1541,4.3664,3.2901,1.6565,1.051
8.254,26.06,46.41,1000.08,0.000000,0.000000,0.00,0,0,1.0002,0.0400,0.0495,2.6870,2.8779,-0.8855,1.002
8.260,26.06,46.40,1000.07,0.000000,0.000000,0.00,0,0,1.0129,-0.0864,-0.1113,2.9008,2.0382,0.8397,1.023
8.335,26.05,46.40,1000.07,0.000000,0.000000,0.00,0,0,1.0076,-0.1042,-0.1401,3.0611,2.2137,1.0763,1.023
8.447,26.07,46.40,1000.11,0.000000,0.000000,0.00,0,0,1.0068,-0.0786,-0.1460,2.1603,-0.5115,-0.8779,1.020
8.453,26.07,46.40,1000.11,0.000000,0.000000,0.00,0,0,1.0044,-0.0703,-0.1433,2.2977,-0.2366,-0.8702,1.017
8.459,26.07,46.40,1000.11,0.000000,0.000000,0.00,0,0,1.0203,-0.0549,-0.1548,2.2672,0.0687,-0.3359,1.033
8.465,26.07,46.40,1000.11,0.000000,0.000000,0.00,0,0,1.0295,-0.0585,-0.1353,2.4504,0.0916,-0.1221,1.040
8.471,26.07,46.40,1000.11,0.000000,0.000000,0.00,0,0,1.0320,-0.0593,-0.1545,2.0992,0.1832,0.3740,1.045
8.477,26.07,46.40,1000.11,0.000000,0.000000,0.00,0,0,1.0254,-0.0542,-0.1499,1.9618,0.2748,0.6260,1.038
8.483,26.07,46.40,1000.11,0.000000,0.000000,0.00,0,0,1.0188,-0.0581,-0.1514,1.6412,0.6336,0.7939,1.032
8.489,26.07,46.37,1000.09,0.000000,0.000000,0.00,0,0,1.0105,-0.0878,-0.1318,3.4122,2.2061,-0.4275,1.023
8.565,26.07,46.37,1000.09,0.000000,0.000000,0.00,0,0,1.0154,-0.0908,-0.1387,3.5878,2.1679,-0.7023,1.029
8.571,26.07,46.37,1000.09,0.000000,0.000000,0.00,0,0,1.0117,-0.0888,-0.1282,3.6947,2.1527,-0.8779,1.024
8.705,26.07,46.38,1000.09,0.000000,0.000000,0.00,0,0,0.9858,-0.0656,-0.1990,0.6336,3.0153,-0.0610,1.008
8.711,26.07,46.38,1000.09,0.000000,0.000000,0.00,0,0,1.0110,-0.0266,-0.1191,0.3664,3.0840,-0.1527,1.018
8.717,26.07,46.38,1000.09,0.000000,0.000000,0.00,0,0,1.0173,-0.1099,-0.1182,1.1221,2.6336,-0.4427,1.030
8.723,26.07,46.38,1000.09,0.000000,0.000000,0.00,0,0,1.0059,-0.0671,-0.1169,-0.1908,2.8626,-0.3511,1.015
8.729,26.07,46.38,1000.09,0.000000,0.000000,0.00,0,0,1.0088,-0.1086,-0.1377,-0.7710,3.1527,-0.4809,1.024
8.735,26.07,46.38,1000.09,0.000000,0.000000,0.00,0,0,1.0151,-0.0730,-0.1367,-0.6947,2.9542,-0.4122,1.027
8.741,26.07,46.38,1000.05,0.000000,0.000000,0.00,0,0,1.0178,-0.0786,-0.1211,2.0076,1.2901,-1.7176,1.028
8.816,26.06,46.38,1000.05,0.000000,0.000000,0.00,0,0,1.0242,-0.0734,-0.1211,1.7557,1.0611,-1.9771,1.034
8.822,26.06,46.38,1000.05,0.000000,0.000000,0.00,0,0,1.0022,-0.0915,-0.0891,4.8702,0.1527,-1.8092,1.010
8.828,26.06,46.38,1000.05,0.000000,0.000000,0.00,0,0,0.9614,-0.0666,-0.1875,2.7634,2.7176,-1.8550,0.982
8.903,26.07,46.38,1000.07,0.000000,0.000000,0.00,0,0,1.0139,-0.0859,-0.1096,0.8244,0.6718,-0.9237,1.023
8.909,26.07,46.38,1000.07,0.000000,0.000000,0.00,0,0,1.0076,-0.0844,-0.1223,1.1221,0.6718,-0.9160,1.018
8.915,26.07,46.38,1000.07,0.000000,0.000000,0.00,0,0,1.0061,-0.0776,-0.1370,1.2901,0.6031,-1.0153,1.018
8.921,26.07,46.38,1000.07,0.000000,0.000000,0.00,0,0,1.0081,-0.0764,-0.1228,1.4198,0.4809,-1.1756,1.018
8.927,26.07,46.38,1000.07,0.000000,0.000000,0.00,0,0,1.0132,-0.0695,-0.1382,1.7328,0.2977,-1.3130,1.025
8.933,26.07,46.38,1000.07,0.000000,0.000000,0.00,0,0,1.0105,-0.0764,-0.1316,1.4198,0.5954,-1.0916,1.022
8.939,26.07,46.38,1000.07,0.000000,0.000000,0.00,0,0,1.0134,-0.0788,-0.1318,1.2443,0.7023,-1.3511,1.025
8.945,26.07,46.38,1000.07,0.000000,0.000000,0.00,0,0,1.0078,-0.0717,-0.1260,1.0840,0.3435,-1.4809,1.018
8.951,26.07,46.38,1000.07,0.000000,0.000000,0.00,0,0,1.0115,-0.0705,-0.1284,1.2595,0.3359,-1.3282,1.022
8.957,26.07,46.38,1000.07,0.000000,0.000000,0.00,0,0,1.0098,-0.0810,-0.1282,1.1221,0.3893,-1.2672,1.021
9.077,26.08,46.38,1000.08,0.000000,0.000000,0.00,0,0,0.9988,-0.0715,-0.1274,-0.2366,0.8626,-0.3664,1.009
9.083,26.08,46.38,1000.08,0.000000,0.000000,0.00,0,0,1.0188,-0.0773,-0.1477,-1.1374,1.4198,-0.5954,1.032
9.089,26.08,46.38,1000.08,0.000000,0.000000,0.00,0,0,1.0212,-0.0532,-0.1292,-0.1603,0.6870,-0.2595,1.031
9.095,26.08,46.38,1000.08,0.000000,0.000000,0.00,0,0,1.0195,-0.0637,-0.1406,0.4809,0.7634,-0.3511,1.031
9.101,26.08,46.38,1000.08,0.000000,0.000000,0.00,0,0,1.0132,-0.0849,-0.1438,0.8702,0.7023,-0.5191,1.027
9.107,26.08,46.38,1000.08,0.000000,0.000000,0.00,0,0,1.0176,-0.0795,-0.1414,1.4351,0.7023,-0.2977,1.030
9.113,26.08,46.38,1000.08,0.000000,0.000000,0.00,0,0,1.0234,-0.0842,-0.1448,2.0382,0.7252,-0.6031,1.037
9.119,26.08,46.38,1000.08,0.000000,0.000000,0.00,0,0,1.0225,-0.0764,-0.1055,2.8397,1.1221,-0.1832,1.031
9.125,26.08,46.38,1000.08,0.000000,0.000000,0.00,0,0,1.0247,-0.0844,-0.1663,2.2977,0.9847,-0.4198,1.041
9.131,26.08,46.38,1000.08,0.000000,0.000000,0.00,0,0,1.0017,-0.0659,-0.1421,1.7176,0.7099,-1.0763,1.014
9.307,26.08,46.38,1000.11,0.000000,0.000000,0.00,0,0,1.0205,-0.0625,-0.1387,2.0992,1.1832,0.4427,1.032
9.313,26.08,46.38,1000.11,0.000000,0.000000,0.00,0,0,1.0144,-0.0607,-0.1208,2.3588,0.9466,0.7863,1.023
9.319,26.08,46.38,1000.11,0.000000,0.000000,0.00,0,0,1.0042,-0.0725,-0.1182,2.0305,1.0534,0.4275,1.014
9.325,26.08,46.38,1000.11,0.000000,0.000000,0.00,0,0,1.0142,-0.0734,-0.1372,2.2137,0.7863,0.5954,1.026
9.331,26.08,46.38,1000.11,0.000000,0.000000,0.00,0,0,1.0166,-0.0688,-0.1335,2.1221,0.9084,0.8473,1.028
9.337,26.08,46.38,1000.11,0.000000,0.000000,0.00,0,0,1.0149,-0.0690,-0.1343,2.6107,0.5878,1.0382,1.026
9.343,26.08,46.38,1000.11,0.000000,0.000000,0.00,0,0,1.0154,-0.0637,-0.1343,2.6870,0.6412,0.7557,1.026
9.349,26.08,46.38,1000.11,0.000000,0.000000,0.00,0,0,1.0212,-0.0637,-0.1455,2.6183,0.8321,0.7786,1.034
9.355,26.08,46.38,1000.11,0.000000,0.000000,0.00,0,0,1.0227,-0.0656,-0.1458,2.8779,0.7863,0.9008,1.035
9.361,26.08,46.38,1000.11,0.000000,0.000000,0.00,0,0,1.0212,-0.0656,-0.1465,2.6718,0.6336,1.0687,1.034
9.465,26.08,46.39,1000.08,0.000000,0.000000,0.00,0,0,1.0181,-0.0822,-0.1284,0.7710,0.3969,2.5802,1.029
9.471,26.08,46.39,1000.08,0.000000,0.000000,0.00,0,0,1.0171,-0.0722,-0.1372,0.5725,0.2366,2.3664,1.029
9.477,26.08,46.39,1000.08,0.000000,0.000000,0.00,0,0,1.0090,-0.0847,-0.1365,0.7634,0.0305,2.3893,1.022
9.483,26.08,46.39,1000.08,0.000000,0.000000,0.00,0,0,1.0120,-0.0861,-0.1196,0.5878,0.0076,2.1679,1.023
9.489,26.08,46.39,1000.08,0.000000,0.000000,0.00,0,0,1.0122,-0.0883,-0.1428,0.4351,-0.0152,2.2748,1.026
9.495,26.08,46.39,1000.08,0.000000,0.000000,0.00,0,0,1.0098,-0.0835,-0.1375,0.4885,-0.2137,2.1756,1.022
9.501,26.08,46.37,1000.05,0.000000,0.000000,0.00,0,0,1.0125,-0.0856,-0.1538,1.2061,-0.1756,0.9542,1.028
9.576,26.05,46.37,1000.05,0.000000,0.000000,0.00,0,0,1.0164,-0.0861,-0.1611,1.2061,-0.0458,0.5725,1.033
9.582,26.05,46.37,1000.05,0.000000,0.000000,0.00,0,0,1.0137,-0.0835,-0.1611,1.4046,0.1069,0.5649,1.030
9.588,26.05,46.37,1000.05,0.000000,0.000000,0.00,0,0,1.0139,-0.0888,-0.1572,1.5267,0.3893,0.2977,1.030
9.677,26.06,46.37,1000.07,0.000000,0.000000,0.00,0,0,1.0142,-0.0744,-0.1497,1.9008,1.7405,-0.7176,1.028
9.683,26.06,46.37,1000.07,0.000000,0.000000,0.00,0,0,1.0164,-0.0791,-0.1492,1.9466,1.7786,-0.7786,1.030
9.689,26.06,46.37,1000.07,0.000000,0.000000,0.00,0,0,1.0186,-0.0722,-0.1467,1.6260,1.8015,-0.8397,1.032
9.695,26.06,46.37,1000.07,0.000000,0.000000,0.00,0,0,1.0168,-0.0822,-0.1409,1.7328,1.8550,-0.7252,1.030
9.701,26.06,46.38,1000.07,0.000000,0.000000,0.00,0,0,1.0227,-0.0708,-0.1528,2.0916,1.7786,-1.3053,1.036
9.776,26.07,46.38,1000.07,0.000000,0.000000,0.00,0,0,1.0247,-0.0612,-0.1616,2.2214,1.8473,-1.1756,1.039
9.782,26.07,46.38,1000.07,0.000000,0.000000,0.00,0,0,1.0205,-0.0698,-0.1580,2.4275,1.8015,-1.2977,1.035
9.788,26.07,46.38,1000.07,0.000000,0.000000,0.00,0,0,1.0190,-0.0710,-0.1445,2.3130,2.0305,-1.2672,1.032
9.794,26.07,46.38,1000.07,0.000000,0.000000,0.00,0,0,1.0161,-0.0676,-0.1506,2.0000,2.0840,-0.8626,1.029
9.800,26.07,46.38,1000.07,0.000000,0.000000,0.00,0,0,1.0132,-0.0673,-0.1565,2.2214,2.0840,-0.7710,1.027
9.965,26.09,46.37,1000.11,0.000000,0.000000,0.00,0,0,1.0161,-0.0690,-0.1472,1.8550,2.0000,-1.3664,1.029
9.971,26.09,46.37,1000.11,0.000000,0.000000,0.00,0,0,1.0181,-0.0690,-0.1404,2.1450,2.2595,-1.3282,1.030
10.045,26.09,46.37,1000.11,0.000000,0.000000,0.00,0,0,1.0176,-0.0642,-0.1453,2.0840,2.4351,-1.1908,1.030
10.051,26.09,46.34,1000.10,0.000000,0.000000,0.00,0,0,1.0110,-0.0720,-0.1375,1.9542,2.3435,-1.2824,1.023
10.057,26.08,46.34,1000.10,0.000000,0.000000,0.00,0,0,1.0137,-0.0664,-0.1370,1.9389,2.2977,-1.0382,1.025
10.063,26.08,46.34,1000.10,0.000000,0.000000,0.00,0,0,1.0115,-0.0893,-0.1550,1.5878,2.8397,-1.7710,1.027
10.137,26.08,46.34,1000.10,0.000000,0.000000,0.00,0,0,1.0120,-0.0830,-0.1484,1.8015,2.9084,-1.9313,1.026
10.144,26.08,46.34,1000.10,0.000000,0.000000,0.00,0,0,1.0090,-0.0820,-0.1558,1.9695,2.6947,-2.3740,1.024
10.150,26.08,46.39,1000.07,0.000000,0.000000,0.00,0,0,1.0142,-0.0883,-0.1465,2.2290,2.7786,-2.2519,1.028
10.156,26.08,46.39,1000.07,0.000000,0.000000,0.00,0,0,1.0088,-0.0754,-0.1577,2.3588,2.6870,-2.3053,1.024
10.285,26.08,46.37,1000.07,0.000000,0.000000,0.00,0,0,1.0181,-0.0483,-0.1316,2.4046,2.8550,-2.3740,1.028
10.291,26.08,46.37,1000.07,0.000000,0.000000,0.00,0,0,1.0176,-0.0451,-0.1406,2.4962,2.7099,-2.3893,1.028
10.297,26.08,46.37,1000.07,0.000000,0.000000,0.00,0,0,1.0171,-0.0537,-0.1260,2.4733,2.8397,-2.2595,1.026
10.303,26.08,46.37,1000.07,0.000000,0.000000,0.00,0,0,1.0210,-0.0527,-0.1401,2.2137,2.5420,-2.1603,1.032
10.309,26.08,46.37,1000.07,0.000000,0.000000,0.00,0,0,1.0212,-0.0524,-0.1372,2.1450,2.5573,-2.0153,1.032
10.315,26.08,46.37,1000.07,0.000000,0.000000,0.00,0,0,1.0195,-0.0502,-0.1343,2.2443,2.7023,-1.9466,1.030
10.321,26.08,46.37,1000.07,0.000000,0.000000,0.00,0,0,1.0237,-0.0537,-0.1333,2.4122,2.3664,-2.0153,1.034
10.327,26.08,46.37,1000.07,0.000000,0.000000,0.00,0,0,1.0132,-0.0454,-0.1372,2.3511,2.3664,-1.8702,1.023
10.333,26.08,46.37,1000.07,0.000000,0.000000,0.00,0,0,1.0134,-0.0473,-0.1414,2.2214,2.5802,-1.7786,1.024
10.339,26.08,46.37,1000.07,0.000000,0.000000,0.00,0,0,1.0183,-0.0422,-0.1414,2.0992,2.4733,-1.6870,1.029
10.515,26.09,46.37,1000.08,0.000000,0.000000,0.00,0,0,1.0134,-0.0505,-0.1230,2.1603,2.1527,-0.9542,1.022
10.521,26.09,46.37,1000.08,0.000000,0.000000,0.00,0,0,1.0159,-0.0471,-0.1343,1.9542,2.1450,-1.0000,1.026
10.527,26.09,46.37,1000.08,0.000000,0.000000,0.00,0,0,1.0229,-0.0505,-0.1238,2.0000,1.8702,-0.8244,1.032
10.533,26.09,46.37,1000.08,0.000000,0.000000,0.00,0,0,1.0171,-0.0459,-0.1274,1.6870,1.8244,-0.7099,1.026
10.539,26.09,46.36,1000.10,0.000000,0.000000,0.00,0,0,1.0127,-0.0512,-0.1250,1.9695,1.8779,-0.6641,1.022
10.545,26.09,46.36,1000.10,0.000000,0.000000,0.00,0,0,1.0164,-0.0532,-0.1282,1.7405,1.7863,-0.5496,1.026
10.551,26.09,46.36,1000.10,0.000000,0.000000,0.00,0,0,1.0142,-0.0561,-0.1233,1.7863,1.7176,-0.7176,1.023
10.557,26.09,46.36,1000.10,0.000000,0.000000,0.00,0,0,1.0134,-0.0510,-0.1309,2.0076,1.6183,-0.7328,1.023
10.563,26.09,46.36,1000.10,0.000000,0.000000,0.00,0,0,1.0186,-0.0502,-0.1335,1.9313,1.6641,-0.5878,1.029
10.569,26.09,46.36,1000.10,0.000000,0.000000,0.00,0,0,1.0229,-0.0520,-0.1301,1.7252,1.5954,-0.7481,1.033
10.727,26.06,46.35,1000.02,0.000000,0.000000,0.00,0,0,1.0166,-0.0629,-0.1443,1.4809,1.0382,0.3435,1.029
10.733,26.06,46.35,1000.09,0.000000,0.000000,0.00,0,0,1.0203,-0.0634,-0.1318,1.3588,1.1145,0.2748,1.031
10.739,26.10,46.37,1000.09,0.000000,0.000000,0.00,0,0,1.0132,-0.0612,-0.1375,1.3740,0.9847,0.1756,1.024
10.745,26.10,46.37,1000.09,0.000000,0.000000,0.00,0,0,1.0195,-0.0588,-0.1426,1.2366,1.2061,0.1832,1.031
10.751,26.10,46.37,1000.09,0.000000,0.000000,0.00,0,0,1.0200,-0.0617,-0.1360,1.4198,0.8779,-0.0076,1.031
10.757,26.10,46.37,1000.09,0.000000,0.000000,0.00,0,0,1.0183,-0.0546,-0.1353,1.3740,0.8779,0.1069,1.029
10.763,26.10,46.37,1000.09,0.000000,0.000000,0.00,0,0,1.0256,-0.0510,-0.1453,1.4580,1.0229,0.1908,1.037
10.768,26.10,46.37,1000.09,0.000000,0.000000,0.00,0,0,1.0256,-0.0493,-0.1423,1.3282,0.9924,0.1832,1.037
10.774,26.10,46.37,1000.09,0.000000,0.000000,0.00,0,0,1.0242,-0.0559,-0.1453,1.4427,1.1298,0.3664,1.036
10.780,26.10,46.37,1000.09,0.000000,0.000000,0.00,0,0,1.0186,-0.0559,-0.1377,1.3511,1.1679,0.2595,1.029
10.853,26.06,46.35,1000.05,0.000000,0.000000,0.00,0,0,1.0242,-0.0554,-0.1287,1.6870,1.8092,0.6412,1.034
10.859,26.06,46.35,1000.05,0.000000,0.000000,0.00,0,0,1.0186,-0.0500,-0.1360,1.6718,1.8092,0.3664,1.029
10.865,26.06,46.35,1000.05,0.000000,0.000000,0.00,0,0,1.0151,-0.0590,-0.1350,1.6565,1.9160,0.3893,1.026
10.871,26.06,46.35,1000.07,0.000000,0.000000,0.00,0,0,1.0120,-0.0629,-0.1406,1.7939,1.3511,-0.0381,1.024
11.015,26.09,46.36,1000.07,0.000000,0.000000,0.00,0,0,1.0171,-0.0615,-0.1272,1.8092,1.2137,-0.0381,1.027
11.021,26.09,46.37,1000.10,0.000000,0.000000,0.00,0,0,1.0142,-0.0551,-0.1409,1.6412,1.5878,0.1985,1.025
11.096,26.10,46.37,1000.10,0.000000,0.000000,0.00,0,0,1.0178,-0.0512,-0.1401,1.5649,1.6489,0.1756,1.029
11.102,26.10,46.36,1000.09,0.000000,0.000000,0.00,0,0,1.0220,-0.0549,-0.1353,1.8321,1.6107,0.3053,1.032
11.246,26.10,46.36,1000.09,0.000000,0.000000,0.00,0,0,1.0186,-0.0627,-0.1321,1.7252,1.5725,0.1374,1.029
11.252,26.10,46.36,1000.09,0.000000,0.000000,0.00,0,0,1.0266,-0.0627,-0.1479,1.8015,1.5725,0.3206,1.039
11.356,26.08,46.35,1000.07,0.000000,0.000000,0.00,0,0,1.0134,-0.0544,-0.1316,1.6641,1.6107,-0.1221,1.023
11.363,26.08,46.35,1000.07,0.000000,0.000000,0.00,0,0,1.0132,-0.0576,-0.1248,1.8473,1.3282,-0.1756,1.022
11.369,26.08,46.35,1000.07,0.000000,0.000000,0.00,0,0,1.0173,-0.0532,-0.1326,1.7252,1.1603,-0.1450,1.027
11.375,26.08,46.35,1000.07,0.000000,0.000000,0.00,0,0,1.0127,-0.0537,-0.1353,1.5649,1.3435,-0.3359,1.023
11.381,26.08,46.35,1000.07,0.000000,0.000000,0.00,0,0,1.0215,-0.0546,-0.1418,1.6718,1.3206,-0.1832,1.033
11.388,26.08,46.35,1000.07,0.000000,0.000000,0.00,0,0,1.0171,-0.0493,-0.1340,1.8015,1.3435,0.1756,1.027
11.394,26.08,46.35,1000.07,0.000000,0.000000,0.00,0,0,1.0225,-0.0483,-0.1362,1.5191,1.2977,-0.0381,1.033
11.400,26.08,46.35,1000.07,0.000000,0.000000,0.00,0,0,1.0208,-0.0534,-0.1377,1.5191,1.1298,0.3130,1.031
11.406,26.08,46.35,1000.07,0.000000,0.000000,0.00,0,0,1.0205,-0.0451,-0.1375,1.6489,1.1374,0.3435,1.031
11.412,26.08,46.35,1000.07,0.000000,0.000000,0.00,0,0,1.0205,-0.0424,-0.1343,1.5191,1.2137,0.3359,1.030
11.615,26.10,46.35,1000.10,0.000000,0.000000,0.00,0,0,1.0139,-0.0651,-0.1414,1.7328,2.6336,-0.4427,1.026
11.621,26.10,46.35,1000.10,0.000000,0.000000,0.00,0,0,1.0217,-0.0444,-0.1362,2.1908,2.8015,-0.3511,1.032
11.695,26.10,46.35,1000.10,0.000000,0.000000,0.00,0,0,1.0198,-0.0481,-0.1499,2.0992,2.8550,-0.3130,1.032
11.701,26.10,46.35,1000.10,0.000000,0.000000,0.00,0,0,1.0237,-0.0505,-0.1365,2.1603,3.0153,-0.2748,1.034
11.707,26.10,46.35,1000.10,0.000000,0.000000,0.00,0,0,1.0247,-0.0500,-0.1279,2.1756,3.0000,0.0916,1.034
11.713,26.10,46.41,1000.09,0.000000,0.000000,0.00,0,0,1.0151,-0.0507,-0.1287,2.0076,3.0458,-0.1298,1.025
11.719,26.10,46.41,1000.09,0.000000,0.000000,0.00,0,0,1.0208,-0.0598,-0.1294,2.0840,2.8855,-0.1145,1.031
11.725,26.10,46.41,1000.09,0.000000,0.000000,0.00,0,0,1.0129,-0.0527,-0.1233,2.2977,2.7863,0.1527,1.022
11.731,26.10,46.41,1000.09,0.000000,0.000000,0.00,0,0,1.0176,-0.0524,-0.1250,2.2748,2.7939,0.1069,1.027
11.737,26.10,46.41,1000.09,0.000000,0.000000,0.00,0,0,1.0088,-0.0556,-0.1228,2.0534,2.7099,0.2214,1.018
11.822,26.08,46.34,1000.04,0.000000,0.000000,0.00,0,0,1.0181,-0.0444,-0.1335,1.4733,1.5115,0.0229,1.028
11.828,26.08,46.34,1000.04,0.000000,0.000000,0.00,0,0,1.0166,-0.0451,-0.1279,1.6947,1.6031,0.0992,1.026
11.833,26.08,46.34,1000.04,0.000000,0.000000,0.00,0,0,1.0195,-0.0466,-0.1260,1.6412,1.7099,0.0534,1.028
11.839,26.08,46.34,1000.04,0.000000,0.000000,0.00,0,0,1.0142,-0.0512,-0.1301,1.3969,1.6336,0.2824,1.024
11.846,26.08,46.34,1000.04,0.000000,0.000000,0.00,0,0,1.0159,-0.0512,-0.1292,1.4733,1.5954,0.3053,1.025
11.851,26.08,46.34,1000.04,0.000000,0.000000,0.00,0,0,1.0125,-0.0505,-0.1296,1.4809,1.5954,0.1298,1.022
11.857,26.08,46.34,1000.04,0.000000,0.000000,0.00,0,0,1.0222,-0.0532,-0.1267,1.5191,1.5038,0.4580,1.031
11.864,26.09,46.34,1000.05,0.000000,0.000000,0.00,0,0,1.0144,-0.0647,-0.1387,1.7481,2.0153,-0.0229,1.026
12.007,26.11,46.33,1000.08,0.000000,0.000000,0.00,0,0,1.0112,-0.0673,-0.1321,1.6107,2.0458,0.1298,1.022
12.013,26.11,46.33,1000.08,0.000000,0.000000,0.00,0,0,1.0144,-0.0661,-0.1372,1.4885,2.1374,0.2137,1.026
12.045,26.11,46.33,1000.08,0.000000,0.000000,0.00,0,0,1.0090,-0.0700,-0.1292,1.8931,2.3435,-0.4504,1.020
12.051,26.11,46.33,1000.08,0.000000,0.000000,0.00,0,0,1.0183,-0.0690,-0.1377,1.8397,2.3282,-0.5954,1.030
12.057,26.11,46.33,1000.08,0.000000,0.000000,0.00,0,0,1.0129,-0.0744,-0.1323,2.0458,2.0916,-0.6107,1.024
12.063,26.11,46.33,1000.08,0.000000,0.000000,0.00,0,0,1.0144,-0.0722,-0.1279,2.1298,2.1069,-0.7405,1.025
12.068,26.11,46.33,1000.08,0.000000,0.000000,0.00,0,0,1.0183,-0.0559,-0.1360,2.0687,2.0992,-0.8702,1.029
12.074,26.11,46.33,1000.08,0.000000,0.000000,0.00,0,0,1.0188,-0.0607,-0.1360,2.0458,1.9618,-0.8244,1.030
12.080,26.11,46.33,1000.08,0.000000,0.000000,0.00,0,0,1.0173,-0.0520,-0.1274,2.3511,2.0229,-0.7710,1.027
12.086,26.11,46.33,1000.08,0.000000,0.000000,0.00,0,0,1.0112,-0.0590,-0.1370,2.2519,2.1374,-0.6947,1.022
12.093,26.11,46.33,1000.08,0.000000,0.000000,0.00,0,0,1.0208,-0.0510,-0.1392,2.2824,2.2137,-0.7634,1.031
12.098,26.11,46.33,1000.10,0.000000,0.000000,0.00,0,0,1.0210,-0.0490,-0.1394,2.4351,2.5878,-0.6107,1.032
12.215,26.11,46.33,1000.11,0.000000,0.000000,0.00,0,0,1.0144,-0.0600,-0.1272,2.4046,2.1603,-0.2519,1.024
12.221,26.11,46.33,1000.11,0.000000,0.000000,0.00,0,0,1.0071,-0.0600,-0.1326,2.2443,2.1832,-0.2748,1.018
12.227,26.11,46.33,1000.11,0.000000,0.000000,0.00,0,0,1.0161,-0.0615,-0.1262,2.3206,2.1221,-0.2901,1.026
12.233,26.11,46.33,1000.11,0.000000,0.000000,0.00,0,0,1.0129,-0.0625,-0.1296,2.1374,2.0763,-0.4733,1.023
12.239,26.11,46.33,1000.11,0.000000,0.000000,0.00,0,0,1.0146,-0.0612,-0.1213,2.2672,1.8855,-0.6412,1.024
12.245,26.11,46.33,1000.11,0.000000,0.000000,0.00,0,0,1.0183,-0.0593,-0.1238,2.3435,1.8855,-0.5344,1.028
12.251,26.11,46.33,1000.11,0.000000,0.000000,0.00,0,0,1.0161,-0.0615,-0.1191,2.4427,1.9008,-0.4733,1.025
12.257,26.11,46.33,1000.11,0.000000,0.000000,0.00,0,0,1.0159,-0.0593,-0.1370,2.7252,1.9542,-0.5420,1.027
12.263,26.11,46.33,1000.11,0.000000,0.000000,0.00,0,0,1.0237,-0.0510,-0.1426,2.4046,1.8321,-0.5344,1.035
12.269,26.11,46.33,1000.11,0.000000,0.000000,0.00,0,0,1.0193,-0.0559,-0.1301,2.7939,1.9084,-0.3282,1.029
12.396,26.12,46.33,1000.12,0.000000,0.000000,0.00,0,0,1.0173,-0.0368,-0.1208,1.2214,0.0229,2.0763,1.025
12.402,26.12,46.33,1000.12,0.000000,0.000000,0.00,0,0,1.0215,-0.0376,-0.1265,1.0763,0.1679,2.1756,1.030
12.408,26.12,46.33,1000.12,0.000000,0.000000,0.00,0,0,1.0181,-0.0449,-0.1228,0.9771,-0.0229,2.2290,1.026
12.414,26.12,46.33,1000.12,0.000000,0.000000,0.00,0,0,1.0215,-0.0444,-0.1230,0.8626,-0.0687,2.4962,1.030
12.420,26.12,46.33,1000.12,0.000000,0.000000,0.00,0,0,1.0244,-0.0437,-0.1226,0.7786,-0.2366,2.5344,1.033
12.426,26.12,46.33,1000.12,0.000000,0.000000,0.00,0,0,1.0166,-0.0498,-0.1187,0.5954,-0.0687,2.7099,1.025
12.432,26.12,46.33,1000.12,0.000000,0.000000,0.00,0,0,1.0193,-0.0554,-0.1243,0.6336,-0.3359,2.5649,1.028
12.438,26.12,46.33,1000.12,0.000000,0.000000,0.00,0,0,1.0205,-0.0551,-0.1189,0.8244,-0.3588,2.7176,1.029
12.444,26.12,46.33,1000.12,0.000000,0.000000,0.00,0,0,1.0127,-0.0502,-0.1260,0.7099,-0.4962,2.6870,1.022
12.450,26.12,46.33,1000.12,0.000000,0.000000,0.00,0,0,1.0171,-0.0505,-0.1213,0.6336,-0.6031,2.7786,1.026
12.577,26.08,46.33,1000.04,0.000000,0.000000,0.00,0,0,1.0115,-0.0681,-0.1353,0.8244,-0.0992,1.7786,1.023
12.583,26.08,46.33,1000.04,0.000000,0.000000,0.00,0,0,1.0171,-0.0712,-0.1436,0.7710,-0.1679,1.8779,1.030
12.589,26.12,46.35,1000.11,0.000000,0.000000,0.00,0,0,1.0146,-0.0690,-0.1338,0.5878,-0.0610,1.8550,1.026
12.595,26.12,46.35,1000.11,0.000000,0.000000,0.00,0,0,1.0154,-0.0698,-0.1299,0.2443,-0.1145,1.6947,1.026
12.600,26.12,46.35,1000.11,0.000000,0.000000,0.00,0,0,1.0146,-0.0695,-0.1357,0.2824,-0.0305,1.8397,1.026
12.607,26.12,46.35,1000.11,0.000000,0.000000,0.00,0,0,1.0168,-0.0747,-0.1572,1.1221,0.3053,1.0916,1.032
12.681,26.12,46.35,1000.11,0.000000,0.000000,0.00,0,0,1.0168,-0.0678,-0.1509,1.1450,0.6183,1.1832,1.030
12.687,26.10,46.33,1000.07,0.000000,0.000000,0.00,0,0,1.0137,-0.0710,-0.1545,1.2061,0.6641,1.1908,1.028
12.694,26.10,46.33,1000.07,0.000000,0.000000,0.00,0,0,1.0178,-0.0625,-0.1421,1.4962,1.4198,0.9466,1.030
12.768,26.10,46.33,1000.07,0.000000,0.000000,0.00,0,0,1.0117,-0.0642,-0.1482,1.3817,1.6031,0.7786,1.025
12.905,26.12,46.32,1000.09,0.000000,0.000000,0.00,0,0,1.0159,-0.0769,-0.1426,1.7786,2.6336,1.0840,1.029
12.911,26.12,46.32,1000.09,0.000000,0.000000,0.00,0,0,1.0193,-0.0695,-0.1453,1.7863,2.3969,1.1221,1.032
12.917,26.12,46.32,1000.09,0.000000,0.000000,0.00,0,0,1.0178,-0.0654,-0.1360,2.1756,2.6260,0.9695,1.029
12.923,26.12,46.32,1000.09,0.000000,0.000000,0.00,0,0,1.0156,-0.0742,-0.1501,2.3206,2.4427,1.0992,1.029
12.929,26.12,46.32,1000.09,0.000000,0.000000,0.00,0,0,1.0168,-0.0725,-0.1401,2.5802,2.7176,1.0000,1.029
12.935,26.12,46.32,1000.09,0.000000,0.000000,0.00,0,0,1.0110,-0.0695,-0.1353,2.4427,2.4733,0.8779,1.022
12.941,26.12,46.32,1000.09,0.000000,0.000000,0.00,0,0,1.0129,-0.0717,-0.1387,2.6107,2.5878,1.1374,1.025
12.947,26.12,46.32,1000.09,0.000000,0.000000,0.00,0,0,1.0151,-0.0647,-0.1479,2.5573,2.5115,0.8931,1.028
12.953,26.12,46.32,1000.09,0.000000,0.000000,0.00,0,0,1.0166,-0.0644,-0.1401,2.5954,2.5649,1.0076,1.028
12.959,26.12,46.32,1000.09,0.000000,0.000000,0.00,0,0,1.0103,-0.0668,-0.1472,2.5191,2.6183,1.0763,1.023
13.090,26.12,46.32,1000.09,0.000000,0.000000,0.00,0,0,1.0352,-0.0444,-0.1677,3.7023,4.8855,4.7328,1.050
13.096,26.12,46.32,1000.09,0.000000,0.000000,0.00,0,0,1.0300,-0.0439,-0.1782,3.7786,4.8931,5.0840,1.046
13.102,26.12,46.32,1000.09,0.000000,0.000000,0.00,0,0,1.0234,-0.0595,-0.1726,4.0763,4.5725,5.4351,1.040
13.108,26.12,46.32,1000.09,0.000000,0.000000,0.00,0,0,1.0132,-0.0581,-0.1719,4.2443,4.3817,5.7634,1.029
13.114,26.12,46.32,1000.09,0.000000,0.000000,0.00,0,0,1.0051,-0.0695,-0.1692,4.6947,4.5420,5.4656,1.022
13.121,26.12,46.32,1000.09,0.000000,0.000000,0.00,0,0,0.9995,-0.0771,-0.1650,5.3588,4.4046,5.0916,1.016
13.127,26.12,46.32,1000.09,0.000000,0.000000,0.00,0,0,0.9995,-0.0791,-0.1682,5.7405,3.9008,5.0076,1.017
13.132,26.12,46.32,1000.09,0.000000,0.000000,0.00,0,0,1.0088,-0.0776,-0.1570,5.8626,3.8931,4.3130,1.024
13.138,26.12,46.32,1000.09,0.000000,0.000000,0.00,0,0,1.0056,-0.0808,-0.1653,5.8397,4.0992,3.8626,1.022
13.144,26.12,46.32,1000.09,0.000000,0.000000,0.00,0,0,1.0103,-0.0725,-0.1467,5.3206,3.6412,3.4885,1.023
13.249,26.10,46.29,1000.06,0.000000,0.000000,0.00,0,0,1.0496,-0.0730,-0.1853,4.3359,-3.8321,-10.8321,1.068
13.255,26.10,46.29,1000.06,0.000000,0.000000,0.00,0,0,1.0576,-0.0598,-0.1890,3.4809,-3.5649,-11.3053,1.076
13.261,26.10,46.29,1000.06,0.000000,0.000000,0.00,0,0,1.0759,-0.0200,-0.1733,0.4275,-1.2214,-10.3511,1.090
13.267,26.10,46.29,1000.06,0.000000,0.000000,0.00,0,0,1.0767,-0.0761,-0.2075,0.9618,-3.4122,-10.7634,1.099
13.273,26.13,46.34,1000.09,0.000000,0.000000,0.00,0,0,1.0479,-0.0585,-0.1963,2.0000,-3.8168,-11.7099,1.068
13.279,26.13,46.34,1000.09,0.000000,0.000000,0.00,0,0,1.0420,-0.0556,-0.1863,2.7786,-3.3053,-12.5496,1.060
13.285,26.13,46.34,1000.09,0.000000,0.000000,0.00,0,0,1.0366,-0.0649,-0.2026,3.2519,-2.8244,-12.4351,1.058
13.291,26.13,46.34,1000.09,0.000000,0.000000,0.00,0,0,1.0237,-0.0576,-0.1785,2.0458,-2.7405,-12.6107,1.041
13.297,26.13,46.34,1000.09,0.000000,0.000000,0.00,0,0,1.0137,-0.0356,-0.1714,1.3969,-2.5191,-12.3740,1.029
13.303,26.09,46.31,1000.04,0.000000,0.000000,0.00,0,0,1.0244,-0.0351,-0.1233,-7.8779,0.0000,-7.8779,1.032
13.498,26.12,46.31,1000.09,0.000000,0.000000,0.00,0,0,0.9653,-0.0527,-0.1147,5.0763,-7.3282,-11.5115,0.974
13.504,26.12,46.31,1000.09,0.000000,0.000000,0.00,0,0,0.9634,-0.0522,-0.1179,6.0229,-7.9542,-11.3511,0.972
13.510,26.12,46.31,1000.09,0.000000,0.000000,0.00,0,0,0.9565,-0.0498,-0.1165,6.7328,-8.7405,-11.4122,0.965
13.516,26.12,46.31,1000.09,0.000000,0.000000,0.00,0,0,0.9558,-0.0456,-0.1052,7.7099,-9.5725,-11.6412,0.963
13.522,26.12,46.31,1000.09,0.000000,0.000000,0.00,0,0,0.9604,0.3208,0.0778,5.6870,-10.0916,-15.1221,1.016
13.528,26.12,46.31,1000.09,0.000000,0.000000,0.00,0,0,1.0205,-0.0454,-0.1584,7.5496,-9.9084,-11.8397,1.034
13.534,26.12,46.31,1000.09,0.000000,0.000000,0.00,0,0,0.9492,-0.0114,-0.1204,6.7863,-10.6412,-11.8473,0.957
13.540,26.12,46.31,1000.09,0.000000,0.000000,0.00,0,0,0.9563,-0.0166,-0.1165,7.3435,-11.1908,-11.7481,0.964
13.546,26.12,46.31,1000.09,0.000000,0.000000,0.00,0,0,0.9592,-0.0590,-0.1267,8.3435,-11.2824,-12.6260,0.969
13.552,26.12,46.31,1000.09,0.000000,0.000000,0.00,0,0,0.9624,-0.0368,-0.1143,8.6870,-11.0534,-12.8092,0.970
13.685,26.13,46.31,1000.08,0.000000,0.000000,0.00,0,0,1.0344,0.0395,-0.1741,-1.2519,-3.7634,-23.3282,1.050
13.691,26.13,46.31,1000.08,0.000000,0.000000,0.00,0,0,1.0178,0.0522,-0.1853,-2.6794,-4.8702,-24.3969,1.036
13.697,26.13,46.31,1000.08,0.000000,0.000000,0.00,0,0,1.0012,0.0600,-0.1582,-3.4198,-6.0992,-24.3206,1.015
13.703,26.13,46.31,1000.08,0.000000,0.000000,0.00,0,0,0.9980,0.0556,-0.1528,-3.6718,-7.1832,-24.0076,1.011
13.709,26.13,46.31,1000.08,0.000000,0.000000,0.00,0,0,0.9902,0.0551,-0.1138,-3.8244,-7.9771,-22.8702,0.998
13.715,26.13,46.31,1000.08,0.000000,0.000000,0.00,0,0,0.9944,0.0671,-0.1284,-1.8779,-8.5115,-20.8397,1.005
13.721,26.13,46.31,1000.08,0.000000,0.000000,0.00,0,0,0.9946,0.0595,-0.1233,-0.9618,-8.6794,-19.8321,1.004
13.727,26.13,46.31,1000.08,0.000000,0.000000,0.00,0,0,1.0010,0.0644,-0.1360,0.7252,-8.2290,-18.7786,1.012
13.733,26.12,46.28,1000.08,0.000000,0.000000,0.00,0,0,1.0420,0.1040,-0.1875,-4.3817,2.1985,-6.8855,1.064
13.807,26.12,46.28,1000.08,0.000000,0.000000,0.00,0,0,1.0435,0.0983,-0.1831,-4.2290,2.4275,-5.9389,1.064
13.916,26.13,46.30,1000.07,0.000000,0.000000,0.00,0,0,1.0254,-0.0368,-0.1816,-8.3664,15.5496,8.3893,1.042
13.922,26.13,46.30,1000.07,0.000000,0.000000,0.00,0,0,1.0117,-0.0432,-0.1931,-5.5115,15.6565,7.2061,1.031
13.928,26.13,46.30,1000.07,0.000000,0.000000,0.00,0,0,1.0076,-0.0485,-0.1887,-3.7634,15.3359,6.6031,1.026
13.933,26.13,46.30,1000.07,0.000000,0.000000,0.00,0,0,0.9873,-0.0393,-0.1458,-2.1069,14.7328,6.1298,0.999
13.939,26.13,46.30,1000.07,0.000000,0.000000,0.00,0,0,0.9780,-0.0456,-0.1440,-0.8092,14.4809,5.4427,0.990
13.945,26.13,46.30,1000.07,0.000000,0.000000,0.00,0,0,0.9641,-0.0507,-0.1221,-0.1374,14.0305,4.4427,0.973
13.951,26.13,46.30,1000.07,0.000000,0.000000,0.00,0,0,0.9641,-0.0546,-0.1104,0.4351,13.3817,3.3206,0.972
13.957,26.13,46.33,1000.10,0.000000,0.000000,0.00,0,0,0.9565,-0.0625,-0.0981,0.9084,12.8168,1.8244,0.964
13.963,26.13,46.33,1000.10,0.000000,0.000000,0.00,0,0,0.9602,-0.0649,-0.0918,1.1603,12.1603,1.1145,0.967
13.969,26.13,46.33,1000.10,0.000000,0.000000,0.00,0,0,0.9661,-0.0632,-0.0876,1.2672,11.2290,0.3130,0.972
14.128,26.11,46.29,1000.07,0.000000,0.000000,0.00,0,0,1.0259,0.1096,-0.1309,2.9847,0.8015,-7.0382,1.040
14.134,26.11,46.29,1000.07,0.000000,0.000000,0.00,0,0,1.0188,0.1001,-0.1309,2.2214,0.5420,-6.7252,1.032
14.139,26.11,46.29,1000.07,0.000000,0.000000,0.00,0,0,1.0229,0.0908,-0.1255,1.6031,0.3435,-6.4809,1.035
14.145,26.11,46.29,1000.07,0.000000,0.000000,0.00,0,0,1.0261,0.0905,-0.1294,0.5344,-0.0992,-6.0611,1.038
14.151,26.13,46.36,1000.10,0.000000,0.000000,0.00,0,0,1.0203,0.0864,-0.1396,-0.1832,-0.0687,-5.6718,1.033
14.158,26.13,46.36,1000.10,0.000000,0.000000,0.00,0,0,1.0225,0.0856,-0.1326,-0.3740,-0.4198,-5.4275,1.035
14.163,26.13,46.36,1000.10,0.000000,0.000000,0.00,0,0,1.0254,0.0725,-0.1404,-0.7023,-0.3664,-5.2672,1.037
14.169,26.13,46.36,1000.10,0.000000,0.000000,0.00,0,0,1.0315,0.0759,-0.1296,-0.7099,-0.3511,-5.3130,1.042
14.175,26.13,46.36,1000.10,0.000000,0.000000,0.00,0,0,1.0208,0.0647,-0.1340,-0.8702,-0.4351,-5.5573,1.032
14.181,26.13,46.36,1000.10,0.000000,0.000000,0.00,0,0,1.0281,0.0576,-0.1274,-0.7176,-0.9160,-5.6641,1.038
14.315,26.10,46.29,1000.03,0.000000,0.000000,0.00,0,0,1.0259,0.1050,-0.1729,-3.3893,-4.7710,-8.5878,1.046
14.321,26.10,46.29,1000.03,0.000000,0.000000,0.00,0,0,1.0298,0.1045,-0.1787,-3.3664,-4.9313,-8.2214,1.050
14.327,26.10,46.29,1000.03,0.000000,0.000000,0.00,0,0,1.0339,0.1077,-0.1797,-3.2977,-5.0000,-7.9389,1.055
14.333,26.10,46.29,1000.03,0.000000,0.000000,0.00,0,0,1.0293,0.1074,-0.1804,-3.3588,-5.1832,-7.8168,1.050
14.339,26.10,46.29,1000.03,0.000000,0.000000,0.00,0,0,1.0305,0.1130,-0.1897,-3.1069,-5.1069,-7.4809,1.054
14.345,26.10,46.27,1000.10,0.000000,0.000000,0.00,0,0,1.0339,0.1086,-0.1926,-3.0534,-4.9847,-7.3053,1.057
14.351,26.13,46.27,1000.10,0.000000,0.000000,0.00,0,0,1.0278,0.1172,-0.1821,-2.3206,-5.0992,-7.2595,1.050
14.357,26.13,46.27,1000.10,0.000000,0.000000,0.00,0,0,1.0269,0.1108,-0.1731,-2.0229,-5.1756,-6.8397,1.047
14.363,26.13,46.27,1000.10,0.000000,0.000000,0.00,0,0,1.0286,0.1230,-0.1814,-1.9466,-4.7863,-6.2061,1.052
14.369,26.13,46.27,1000.10,0.000000,0.000000,0.00,0,0,1.0239,0.1326,-0.1741,-2.2824,-4.6641,-6.2366,1.047
14.515,26.11,46.29,1000.07,0.000000,0.000000,0.00,0,0,1.0037,0.1133,-0.1621,-3.6107,-0.4962,-8.0687,1.023
14.521,26.11,46.29,1000.07,0.000000,0.000000,0.00,0,0,1.0046,0.1145,-0.1646,-3.7252,-0.5573,-7.9008,1.024
14.527,26.11,46.29,1000.07,0.000000,0.000000,0.00,0,0,1.0066,0.1230,-0.1672,-3.8702,-0.3893,-8.0382,1.028
14.533,26.11,46.29,1000.07,0.000000,0.000000,0.00,0,0,1.0027,0.1250,-0.1709,-3.9618,-0.4656,-8.0916,1.025
14.539,26.11,46.29,1000.10,0.000000,0.000000,0.00,0,0,1.0115,0.1338,-0.1785,-4.1756,-0.0534,-8.2901,1.036
14.545,26.14,46.38,1000.10,0.000000,0.000000,0.00,0,0,1.0129,0.1294,-0.1790,-4.0840,-0.1069,-8.0000,1.037
14.551,26.14,46.38,1000.10,0.000000,0.000000,0.00,0,0,1.0166,0.1326,-0.1672,-4.2366,-0.0763,-8.1527,1.039
14.557,26.14,46.38,1000.10,0.000000,0.000000,0.00,0,0,1.0161,0.1426,-0.1831,-4.3053,0.1832,-7.8321,1.042
14.563,26.14,46.38,1000.10,0.000000,0.000000,0.00,0,0,1.0142,0.1497,-0.1790,-4.3359,0.2748,-7.8779,1.041
14.569,26.14,46.38,1000.10,0.000000,0.000000,0.00,0,0,1.0164,0.1511,-0.1770,-4.3435,0.4962,-7.6107,1.043
14.745,26.15,46.27,1000.12,0.000000,0.000000,0.00,0,0,1.0188,0.1299,-0.2019,-5.3206,-0.6947,-0.6718,1.047
14.751,26.15,46.27,1000.12,0.000000,0.000000,0.00,0,0,1.0178,0.1260,-0.1995,-4.9618,-0.7328,-0.5038,1.045
14.757,26.15,46.27,1000.12,0.000000,0.000000,0.00,0,0,1.0090,0.1277,-0.2156,-4.8550,-0.5115,-0.6718,1.040
14.763,26.15,46.27,1000.12,0.000000,0.000000,0.00,0,0,1.0081,0.1292,-0.2000,-4.5802,-0.6565,-0.6260,1.036
14.769,26.15,46.27,1000.12,0.000000,0.000000,0.00,0,0,1.0117,0.1267,-0.2036,-4.0305,-0.6336,-0.7252,1.040
14.775,26.15,46.27,1000.12,0.000000,0.000000,0.00,0,0,1.0098,0.1313,-0.2051,-4.2214,-0.6947,-0.6412,1.039
14.781,26.15,46.27,1000.12,0.000000,0.000000,0.00,0,0,1.0090,0.1313,-0.1990,-3.9542,-0.4198,-0.8397,1.037
14.787,26.15,46.27,1000.12,0.000000,0.000000,0.00,0,0,1.0090,0.1323,-0.2153,-3.6641,-0.2214,-0.5344,1.040
14.793,26.15,46.27,1000.12,0.000000,0.000000,0.00,0,0,1.0105,0.1267,-0.2141,-3.4733,-0.1527,-0.6641,1.041
14.799,26.15,46.27,1000.12,0.000000,0.000000,0.00,0,0,1.0068,0.1289,-0.2107,-3.3740,-0.1603,-0.6107,1.037
14.945,26.14,46.27,1000.10,0.000000,0.000000,0.00,0,0,1.0093,0.1387,-0.2024,2.6107,1.7252,-0.5954,1.039
14.951,26.14,46.27,1000.10,0.000000,0.000000,0.00,0,0,1.0173,0.1450,-0.1963,2.9771,1.7634,-0.5725,1.046
14.957,26.14,46.27,1000.10,0.000000,0.000000,0.00,0,0,1.0027,0.1416,-0.1973,2.9618,1.8779,-0.4427,1.032
14.963,26.14,46.27,1000.10,0.000000,0.000000,0.00,0,0,1.0059,0.1379,-0.1938,2.7176,2.0763,-0.7176,1.034
14.969,26.14,46.27,1000.10,0.000000,0.000000,0.00,0,0,1.0002,0.1418,-0.1926,2.7863,2.0763,-0.4504,1.028
14.975,26.14,46.27,1000.10,0.000000,0.000000,0.00,0,0,1.0024,0.1338,-0.1902,2.7557,2.4122,-0.6031,1.029
14.981,26.14,46.27,1000.10,0.000000,0.000000,0.00,0,0,1.0063,0.1353,-0.1855,2.7939,2.4962,-0.6718,1.032
14.987,26.14,46.27,1000.10,0.000000,0.000000,0.00,0,0,1.0034,0.1387,-0.1953,2.8550,2.6183,-0.7939,1.032
14.993,26.14,46.27,1000.10,0.000000,0.000000,0.00,0,0,1.0063,0.1360,-0.1929,2.8855,2.6794,-0.7939,1.034
14.999,26.14,46.27,1000.10,0.000000,0.000000,0.00,0,0,1.0034,0.1335,-0.1855,2.7252,2.8168,-0.9847,1.029
15.109,26.13,46.28,1000.08,0.000000,0.000000,0.00,0,0,1.0049,0.1367,-0.1765,1.5878,5.2519,-2.0687,1.029
15.115,26.13,46.28,1000.08,0.000000,0.000000,0.00,0,0,1.0017,0.1272,-0.1677,1.5420,5.2977,-1.9618,1.024
15.121,26.15,46.25,1000.09,0.000000,0.000000,0.00,0,0,1.0132,0.1433,-0.1719,1.7099,4.5191,-2.2061,1.038
15.195,26.15,46.25,1000.09,0.000000,0.000000,0.00,0,0,1.0217,0.1487,-0.1787,1.7939,4.5115,-2.3588,1.048
15.201,26.15,46.25,1000.09,0.000000,0.000000,0.00,0,0,1.0164,0.1550,-0.1787,1.8779,4.4809,-2.1679,1.044
15.207,26.15,46.25,1000.09,0.000000,0.000000,0.00,0,0,1.0149,0.1489,-0.1868,2.0687,4.3588,-1.9466,1.043
15.213,26.15,46.30,1000.09,0.000000,0.000000,0.00,0,0,1.0134,0.1670,-0.1624,1.8855,0.8092,-1.0916,1.040
15.356,26.15,46.26,1000.09,0.000000,0.000000,0.00,0,0,1.0125,0.1655,-0.1709,1.7405,0.9847,-0.8397,1.040
15.362,26.15,46.26,1000.09,0.000000,0.000000,0.00,0,0,1.0132,0.1667,-0.1638,1.7328,0.9466,-0.6947,1.040
15.368,26.15,46.26,1000.09,0.000000,0.000000,0.00,0,0,1.0103,0.1633,-0.1748,1.8168,1.0076,-0.3740,1.038
15.526,26.15,46.25,1000.12,0.000000,0.000000,0.00,0,0,1.0103,0.1594,-0.1858,1.1603,1.0916,-0.9924,1.039
15.533,26.15,46.25,1000.12,0.000000,0.000000,0.00,0,0,1.0117,0.1523,-0.1816,1.0992,1.1069,-1.2366,1.039
15.539,26.15,46.25,1000.12,0.000000,0.000000,0.00,0,0,1.0100,0.1497,-0.1846,1.1679,1.1756,-0.7634,1.038
15.544,26.15,46.25,1000.12,0.000000,0.000000,0.00,0,0,1.0105,0.1536,-0.1838,1.1069,1.1908,-1.1221,1.039
15.550,26.15,46.25,1000.12,0.000000,0.000000,0.00,0,0,1.0149,0.1477,-0.1792,1.1069,1.4580,-0.7939,1.041
15.556,26.15,46.25,1000.12,0.000000,0.000000,0.00,0,0,1.0120,0.1504,-0.1792,1.2061,1.3969,-0.7939,1.039
15.562,26.15,46.25,1000.12,0.000000,0.000000,0.00,0,0,1.0071,0.1497,-0.1768,0.9466,1.3435,-0.7328,1.033
15.568,26.15,46.25,1000.12,0.000000,0.000000,0.00,0,0,1.0051,0.1426,-0.1621,1.1908,1.4351,-0.8931,1.028
15.574,26.15,46.25,1000.12,0.000000,0.000000,0.00,0,0,1.0024,0.1416,-0.1794,1.2366,1.3511,-0.9847,1.028
15.580,26.15,46.25,1000.09,0.000000,0.000000,0.00,0,0,1.0020,0.1680,-0.1685,0.9924,0.8473,1.0000,1.030
15.803,26.15,46.25,1000.10,0.000000,0.000000,0.00,0,0,1.0024,0.1423,-0.1814,1.2366,-0.2824,-0.0534,1.029
15.809,26.15,46.25,1000.09,0.000000,0.000000,0.00,0,0,1.0103,0.1448,-0.1836,1.2824,-0.2137,-0.2214,1.037
15.815,26.15,46.25,1000.09,0.000000,0.000000,0.00,0,0,0.9993,0.1514,-0.1841,1.4962,-0.0763,0.0152,1.027
15.821,26.15,46.25,1000.09,0.000000,0.000000,0.00,0,0,0.9998,0.1462,-0.1719,1.4427,-0.0152,-0.3359,1.025
15.827,26.15,46.25,1000.09,0.000000,0.000000,0.00,0,0,1.0034,0.1475,-0.1892,1.5725,0.0000,-0.5115,1.032
15.833,26.15,46.25,1000.09,0.000000,0.000000,0.00,0,0,1.0105,0.1406,-0.1812,1.5420,0.0763,-0.2977,1.036
15.839,26.15,46.25,1000.09,0.000000,0.000000,0.00,0,0,1.0107,0.1499,-0.1777,1.5496,0.2290,-0.0839,1.037
15.845,26.15,46.25,1000.09,0.000000,0.000000,0.00,0,0,1.0078,0.1528,-0.1824,1.5649,0.1450,-0.1450,1.036
15.851,26.15,46.25,1000.09,0.000000,0.000000,0.00,0,0,1.0076,0.1560,-0.1748,1.4733,0.1374,-0.1908,1.034
15.857,26.15,46.25,1000.09,0.000000,0.000000,0.00,0,0,1.0085,0.1550,-0.1875,1.3893,0.5344,-0.3435,1.037
15.986,26.12,46.25,1000.06,0.000000,0.000000,0.00,0,0,1.0078,0.1748,-0.1848,0.8397,1.4427,-0.0381,1.039
15.992,26.12,46.25,1000.06,0.000000,0.000000,0.00,0,0,1.0049,0.1660,-0.1816,1.0840,1.1527,0.0839,1.035
15.998,26.12,46.25,1000.06,0.000000,0.000000,0.00,0,0,1.0049,0.1621,-0.1863,1.0992,1.3893,0.1374,1.035
16.004,26.12,46.21,1000.10,0.000000,0.000000,0.00,0,0,1.0088,0.1616,-0.1943,1.1450,1.3435,0.4122,1.040
16.010,26.15,46.21,1000.10,0.000000,0.000000,0.00,0,0,1.0066,0.1633,-0.1814,1.1221,1.5954,0.5496,1.036
16.016,26.15,46.21,1000.10,0.000000,0.000000,0.00,0,0,1.0029,0.1550,-0.1887,1.1679,1.6794,0.8321,1.032
16.022,26.15,46.21,1000.10,0.000000,0.000000,0.00,0,0,1.0039,0.1597,-0.1968,1.0840,1.5573,0.8168,1.035
16.028,26.15,46.21,1000.10,0.000000,0.000000,0.00,0,0,1.0071,0.1545,-0.1917,1.2137,1.8015,0.9237,1.037
16.034,26.15,46.21,1000.10,0.000000,0.000000,0.00,0,0,1.0088,0.1509,-0.1941,1.4351,1.7481,0.8702,1.038
16.040,26.15,46.21,1000.08,0.000000,0.000000,0.00,0,0,1.0083,0.1536,-0.1853,3.4275,3.6183,0.5496,1.037
16.178,26.12,46.25,1000.03,0.000000,0.000000,0.00,0,0,0.9998,0.1450,-0.1719,3.2748,3.9542,0.0763,1.025
16.184,26.12,46.25,1000.03,0.000000,0.000000,0.00,0,0,1.0068,0.1487,-0.1736,3.2672,3.8779,-0.2901,1.032
16.190,26.12,46.25,1000.03,0.000000,0.000000,0.00,0,0,1.0156,0.1511,-0.1746,3.5496,3.8931,-0.3282,1.042
16.196,26.12,46.25,1000.03,0.000000,0.000000,0.00,0,0,1.0076,0.1582,-0.1729,3.1985,3.7710,-0.0610,1.034
16.202,26.16,46.27,1000.09,0.000000,0.000000,0.00,0,0,1.0083,0.1467,-0.1716,3.0305,3.5420,-0.3817,1.033
16.208,26.16,46.27,1000.09,0.000000,0.000000,0.00,0,0,1.0088,0.1509,-0.1685,3.1985,3.7557,-0.3435,1.034
16.214,26.16,46.27,1000.09,0.000000,0.000000,0.00,0,0,1.0144,0.1541,-0.1641,3.0382,3.6336,-0.2901,1.039
16.220,26.16,46.27,1000.09,0.000000,0.000000,0.00,0,0,1.0117,0.1692,-0.1594,1.8397,2.4656,0.8321,1.038
16.295,26.16,46.27,1000.09,0.000000,0.000000,0.00,0,0,1.0105,0.1548,-0.1619,1.6565,2.6641,1.0916,1.035
16.301,26.14,46.25,1000.08,0.000000,0.000000,0.00,0,0,1.0129,0.1521,-0.1594,1.7786,2.3664,1.2137,1.037
16.406,26.15,46.23,1000.08,0.000000,0.000000,0.00,0,0,1.0024,0.1458,-0.1729,1.4733,1.0763,0.6260,1.028
16.412,26.15,46.23,1000.08,0.000000,0.000000,0.00,0,0,1.0120,0.1470,-0.1775,1.2519,1.3511,0.6412,1.038
16.418,26.15,46.23,1000.08,0.000000,0.000000,0.00,0,0,1.0090,0.1445,-0.1807,1.3282,1.3893,0.6947,1.035
16.424,26.15,46.23,1000.08,0.000000,0.000000,0.00,0,0,1.0039,0.1440,-0.1843,1.5267,1.2137,0.8015,1.031
16.430,26.15,46.23,1000.08,0.000000,0.000000,0.00,0,0,1.0051,0.1423,-0.1887,1.3130,1.4122,0.5420,1.033
16.436,26.15,46.23,1000.08,0.000000,0.000000,0.00,0,0,1.0117,0.1409,-0.1858,1.3817,1.3893,0.6718,1.038
16.442,26.15,46.23,1000.08,0.000000,0.000000,0.00,0,0,1.0037,0.1440,-0.1787,1.3817,1.3588,0.6183,1.030
16.448,26.15,46.23,1000.08,0.000000,0.000000,0.00,0,0,1.0098,0.1423,-0.1814,1.4733,1.5038,0.5420,1.036
16.454,26.15,46.23,1000.08,0.000000,0.000000,0.00,0,0,1.0100,0.1406,-0.1917,1.4046,1.3740,0.4427,1.038
16.460,26.15,46.23,1000.08,0.000000,0.000000,0.00,0,0,1.0010,0.1387,-0.1853,1.2901,1.5191,0.3511,1.027
16.533,26.14,46.23,1000.06,0.000000,0.000000,0.00,0,0,1.0095,0.1482,-0.1882,2.2595,1.6489,-0.0458,1.038
16.539,26.14,46.23,1000.06,0.000000,0.000000,0.00,0,0,1.0115,0.1509,-0.1770,2.2137,1.7328,-0.0687,1.038
16.545,26.14,46.23,1000.06,0.000000,0.000000,0.00,0,0,1.0115,0.1587,-0.1758,2.1985,1.7481,0.0000,1.039
16.551,26.14,46.23,1000.12,0.000000,0.000000,0.00,0,0,1.0061,0.1350,-0.1672,2.1145,2.1908,0.7252,1.029
16.695,26.16,46.22,1000.12,0.000000,0.000000,0.00,0,0,1.0015,0.1401,-0.1699,1.9466,2.1374,0.7099,1.025
16.702,26.16,46.22,1000.12,0.000000,0.000000,0.00,0,0,0.9971,0.1392,-0.1660,1.9771,2.2901,0.2824,1.020
16.708,26.16,46.22,1000.12,0.000000,0.000000,0.00,0,0,1.0007,0.1353,-0.1663,1.7939,2.2824,0.3435,1.023
16.713,26.16,46.22,1000.12,0.000000,0.000000,0.00,0,0,1.0068,0.1331,-0.1653,1.9847,2.1145,0.1908,1.029
16.719,26.16,46.22,1000.12,0.000000,0.000000,0.00,0,0,1.0046,0.1331,-0.1641,1.7939,2.0763,0.0152,1.027
16.726,26.16,46.22,1000.12,0.000000,0.000000,0.00,0,0,1.0037,0.1279,-0.1663,1.9771,2.1756,-0.1527,1.025
16.817,26.13,46.23,1000.05,0.000000,0.000000,0.00,0,0,0.9988,0.1418,-0.1711,1.5802,1.7481,0.2824,1.023
16.823,26.13,46.23,1000.05,0.000000,0.000000,0.00,0,0,1.0034,0.1379,-0.1594,1.5420,1.6718,0.0763,1.025
16.829,26.13,46.23,1000.05,0.000000,0.000000,0.00,0,0,1.0029,0.1375,-0.1660,1.5573,1.5420,0.0839,1.026
16.835,26.13,46.23,1000.05,0.000000,0.000000,0.00,0,0,1.0063,0.1392,-0.1665,1.5802,1.5191,-0.2443,1.029
16.840,26.13,46.22,1000.10,0.000000,0.000000,0.00,0,0,1.0059,0.1580,-0.1672,1.9160,1.2290,0.2977,1.032
16.914,26.16,46.22,1000.10,0.000000,0.000000,0.00,0,0,0.9983,0.1504,-0.1694,1.9160,1.2672,0.3130,1.024
16.920,26.16,46.22,1000.10,0.000000,0.000000,0.00,0,0,1.0078,0.1479,-0.1692,1.8321,1.2748,0.2595,1.033
16.926,26.16,46.22,1000.10,0.000000,0.000000,0.00,0,0,1.0005,0.1465,-0.1780,1.7557,1.3282,0.2595,1.027
16.932,26.16,46.22,1000.10,0.000000,0.000000,0.00,0,0,1.0059,0.1472,-0.1663,1.6260,1.1603,0.3969,1.030
16.938,26.16,46.22,1000.10,0.000000,0.000000,0.00,0,0,1.0076,0.1416,-0.1658,1.6641,1.2366,0.3282,1.031
17.068,26.15,46.22,1000.07,0.000000,0.000000,0.00,0,0,1.0071,0.1372,-0.1714,1.7710,1.0687,0.6107,1.031
17.075,26.15,46.22,1000.07,0.000000,0.000000,0.00,0,0,1.0049,0.1414,-0.1763,1.7023,1.1450,0.3588,1.030
17.080,26.17,46.22,1000.11,0.000000,0.000000,0.00,0,0,1.0125,0.1362,-0.1692,1.7481,1.0153,0.5420,1.035
17.086,26.17,46.22,1000.11,0.000000,0.000000,0.00,0,0,1.0056,0.1409,-0.1812,1.7863,1.0611,0.4580,1.031
17.092,26.17,46.22,1000.11,0.000000,0.000000,0.00,0,0,1.0054,0.1475,-0.1729,1.9084,1.1908,0.4275,1.031
17.098,26.17,46.22,1000.11,0.000000,0.000000,0.00,0,0,1.0098,0.1401,-0.1760,1.9160,1.1374,0.0916,1.035
17.104,26.17,46.22,1000.11,0.000000,0.000000,0.00,0,0,1.0105,0.1462,-0.1804,1.9160,1.0153,0.1221,1.037
17.110,26.17,46.22,1000.11,0.000000,0.000000,0.00,0,0,1.0081,0.1440,-0.1763,1.8321,1.2214,0.0992,1.033
17.116,26.17,46.22,1000.11,0.000000,0.000000,0.00,0,0,1.0103,0.1470,-0.1711,1.8473,1.1221,0.0076,1.035
17.122,26.17,46.22,1000.11,0.000000,0.000000,0.00,0,0,1.0117,0.1497,-0.1868,1.8092,1.2290,0.1374,1.040
17.212,26.13,46.22,1000.04,0.000000,0.000000,0.00,0,0,1.0049,0.1458,-0.1772,1.5878,1.5038,0.1450,1.031
17.218,26.13,46.22,1000.04,0.000000,0.000000,0.00,0,0,1.0093,0.1438,-0.1646,1.5954,1.3588,-0.0229,1.033
17.224,26.13,46.22,1000.04,0.000000,0.000000,0.00,0,0,1.0015,0.1506,-0.1704,1.8015,1.7023,0.1527,1.027
17.230,26.13,46.22,1000.05,0.000000,0.000000,0.00,0,0,1.0049,0.1421,-0.1721,1.7634,1.6412,-0.0916,1.029
17.305,26.17,46.21,1000.10,0.000000,0.000000,0.00,0,0,1.0076,0.1431,-0.1777,1.9618,1.6565,-0.1985,1.033
17.311,26.17,46.21,1000.09,0.000000,0.000000,0.00,0,0,1.0071,0.1440,-0.1763,1.5344,1.0382,1.0763,1.032
17.385,26.16,46.21,1000.09,0.000000,0.000000,0.00,0,0,1.0117,0.1487,-0.1782,1.9160,1.1298,0.7710,1.038
17.462,26.16,46.21,1000.09,0.000000,0.000000,0.00,0,0,1.0022,0.1453,-0.1836,1.8168,1.1908,0.8015,1.029
17.468,26.16,46.21,1000.11,0.000000,0.000000,0.00,0,0,1.0037,0.1440,-0.1682,2.0305,1.1832,0.7710,1.028
17.474,26.16,46.21,1000.11,0.000000,0.000000,0.00,0,0,1.0034,0.1450,-0.1831,1.8931,1.4351,0.5496,1.030
17.598,26.16,46.21,1000.10,0.000000,0.000000,0.00,0,0,0.9988,0.1301,-0.1716,1.8779,2.0763,-0.0381,1.022
17.604,26.16,46.21,1000.10,0.000000,0.000000,0.00,0,0,1.0071,0.1348,-0.1770,1.6260,2.2061,-0.1679,1.031
17.610,26.16,46.21,1000.10,0.000000,0.000000,0.00,0,0,1.0032,0.1321,-0.1794,1.8397,1.9237,-0.3740,1.028
17.616,26.16,46.21,1000.10,0.000000,0.000000,0.00,0,0,1.0120,0.1428,-0.1792,2.0458,2.2290,-0.3130,1.038
17.622,26.16,46.21,1000.10,0.000000,0.000000,0.00,0,0,1.0061,0.1406,-0.1787,2.0229,1.9847,-0.4962,1.031
17.628,26.16,46.21,1000.10,0.000000,0.000000,0.00,0,0,1.0066,0.1472,-0.1824,2.1221,2.1221,-0.1603,1.034
17.633,26.16,46.21,1000.10,0.000000,0.000000,0.00,0,0,1.0146,0.1504,-0.1855,2.0611,2.2290,-0.3817,1.042
17.639,26.16,46.21,1000.10,0.000000,0.000000,0.00,0,0,1.0139,0.1523,-0.1719,2.1069,2.2672,-0.2748,1.040
17.646,26.17,46.19,1000.07,0.000000,0.000000,0.00,0,0,1.0078,0.1458,-0.1592,1.8092,1.8397,0.8321,1.031
17.721,26.17,46.19,1000.07,0.000000,0.000000,0.00,0,0,1.0022,0.1323,-0.1833,1.7634,1.7786,0.7710,1.027
17.826,26.17,46.20,1000.08,0.000000,0.000000,0.00,0,0,1.0044,0.1384,-0.1848,1.9847,1.6641,-0.0229,1.031
17.832,26.17,46.20,1000.08,0.000000,0.000000,0.00,0,0,1.0103,0.1360,-0.1829,1.8244,1.7328,0.2977,1.036
17.838,26.17,46.20,1000.08,0.000000,0.000000,0.00,0,0,1.0083,0.1377,-0.1794,1.7634,1.7252,0.1069,1.033
17.844,26.18,46.20,1000.09,0.000000,0.000000,0.00,0,0,1.0085,0.1536,-0.1814,1.9237,1.1069,0.0458,1.036
17.988,26.18,46.20,1000.09,0.000000,0.000000,0.00,0,0,1.0093,0.1565,-0.1748,1.7328,1.4275,0.2672,1.036
17.994,26.16,46.19,1000.08,0.000000,0.000000,0.00,0,0,1.0049,0.1326,-0.1770,1.7863,1.6718,0.3053,1.029
18.069,26.16,46.19,1000.08,0.000000,0.000000,0.00,0,0,1.0046,0.1370,-0.1746,1.7634,1.5954,0.2595,1.029
18.075,26.16,46.19,1000.08,0.000000,0.000000,0.00,0,0,1.0024,0.1338,-0.1741,1.7710,1.4962,0.2748,1.026
18.081,26.16,46.19,1000.08,0.000000,0.000000,0.00,0,0,1.0076,0.1321,-0.1658,1.7252,1.5191,0.1679,1.030
18.087,26.16,46.19,1000.08,0.000000,0.000000,0.00,0,0,1.0066,0.1343,-0.1667,1.8092,1.3588,0.0229,1.029
18.249,26.18,46.19,1000.11,0.000000,0.000000,0.00,0,0,1.0032,0.1418,-0.1816,1.6565,1.8092,-0.0305,1.029
18.255,26.18,46.19,1000.11,0.000000,0.000000,0.00,0,0,1.0100,0.1460,-0.1770,1.7328,1.8550,-0.0992,1.036
18.261,26.18,46.19,1000.11,0.000000,0.000000,0.00,0,0,1.0068,0.1455,-0.1741,1.9313,2.1527,-0.3588,1.032
18.337,26.18,46.19,1000.11,0.000000,0.000000,0.00,0,0,1.0056,0.1428,-0.1790,1.9924,2.1221,-0.3359,1.031
18.343,26.18,46.19,1000.11,0.000000,0.000000,0.00,0,0,1.0088,0.1477,-0.1675,1.8931,2.1450,-0.1603,1.033
18.348,26.17,46.12,1000.09,0.000000,0.000000,0.00,0,0,1.0093,0.1458,-0.1724,1.8931,2.3206,-0.4885,1.034
18.354,26.17,46.12,1000.09,0.000000,0.000000,0.00,0,0,1.0063,0.1494,-0.1750,1.8626,2.1603,-0.2366,1.032
18.360,26.17,46.12,1000.09,0.000000,0.000000,0.00,0,0,1.0037,0.1475,-0.1733,1.9008,2.0763,-0.2061,1.029
18.366,26.17,46.12,1000.09,0.000000,0.000000,0.00,0,0,1.0056,0.1396,-0.1738,1.8855,2.0916,-0.2595,1.030
18.372,26.17,46.12,1000.09,0.000000,0.000000,0.00,0,0,1.0027,0.1426,-0.1707,2.1069,2.1145,-0.1756,1.027
18.498,26.15,46.19,1000.04,0.000000,0.000000,0.00,0,0,1.0049,0.1399,-0.1812,1.4046,1.2366,0.0992,1.031
18.504,26.15,46.19,1000.04,0.000000,0.000000,0.00,0,0,1.0066,0.1460,-0.1838,1.7252,1.3282,0.2824,1.034
18.510,26.15,46.19,1000.04,0.000000,0.000000,0.00,0,0,1.0098,0.1440,-0.1726,1.6183,1.2366,0.3893,1.034
18.516,26.15,46.19,1000.04,0.000000,0.000000,0.00,0,0,1.0161,0.1382,-0.1829,1.5649,1.2977,0.4656,1.042
18.522,26.15,46.19,1000.04,0.000000,0.000000,0.00,0,0,1.0166,0.1416,-0.1814,1.6183,1.2366,0.3511,1.042
18.528,26.15,46.19,1000.04,0.000000,0.000000,0.00,0,0,1.0112,0.1411,-0.1887,1.6794,1.5496,0.1221,1.038
18.534,26.15,46.19,1000.04,0.000000,0.000000,0.00,0,0,1.0151,0.1499,-0.1880,1.6947,1.6336,0.4351,1.043
18.540,26.15,46.19,1000.03,0.000000,0.000000,0.00,0,0,1.0098,0.1467,-0.1919,1.5038,1.6489,0.4198,1.038
18.546,26.18,46.15,1000.08,0.000000,0.000000,0.00,0,0,1.0063,0.1436,-0.1804,1.2672,1.7634,0.3969,1.032
18.552,26.18,46.15,1000.08,0.000000,0.000000,0.00,0,0,1.0083,0.1423,-0.1758,1.5649,1.8092,0.4122,1.033
18.692,26.17,46.18,1000.07,0.000000,0.000000,0.00,0,0,1.0066,0.1321,-0.1812,1.6794,1.2137,-0.2672,1.031
18.698,26.17,46.18,1000.07,0.000000,0.000000,0.00,0,0,1.0112,0.1365,-0.1797,1.7252,1.2519,-0.2061,1.036
18.704,26.17,46.18,1000.07,0.000000,0.000000,0.00,0,0,1.0081,0.1343,-0.1814,1.8550,1.1374,-0.4733,1.033
18.710,26.17,46.18,1000.07,0.000000,0.000000,0.00,0,0,1.0120,0.1292,-0.1863,1.8015,1.1985,-0.1603,1.037
18.716,26.17,46.18,1000.07,0.000000,0.000000,0.00,0,0,1.0042,0.1387,-0.1787,1.7634,1.3511,-0.3817,1.029
18.722,26.17,46.18,1000.07,0.000000,0.000000,0.00,0,0,1.0037,0.1387,-0.1726,1.7176,1.5115,-0.5115,1.028
18.728,26.17,46.18,1000.07,0.000000,0.000000,0.00,0,0,1.0029,0.1357,-0.1768,1.5878,1.6031,-0.6794,1.027
18.734,26.17,46.18,1000.07,0.000000,0.000000,0.00,0,0,1.0042,0.1411,-0.1787,1.6336,1.4733,-0.5725,1.030
18.740,26.19,46.16,1000.09,0.000000,0.000000,0.00,0,0,0.9973,0.1379,-0.1763,1.8092,1.5878,-0.7405,1.022
18.746,26.19,46.16,1000.09,0.000000,0.000000,0.00,0,0,1.0024,0.1421,-0.1680,1.9008,1.7481,-0.8015,1.026
18.875,26.17,46.18,1000.03,0.000000,0.000000,0.00,0,0,1.0056,0.1375,-0.1755,1.8550,1.0611,-0.3969,1.030
18.881,26.17,46.18,1000.03,0.000000,0.000000,0.00,0,0,1.0146,0.1450,-0.1726,1.8779,1.2366,-0.0534,1.039
18.887,26.17,46.18,1000.03,0.000000,0.000000,0.00,0,0,1.0098,0.1423,-0.1738,1.5420,0.9847,0.0916,1.034
18.893,26.17,46.18,1000.03,0.000000,0.000000,0.00,0,0,1.0125,0.1516,-0.1755,1.6260,1.2137,-0.0687,1.039
18.899,26.17,46.18,1000.03,0.000000,0.000000,0.00,0,0,1.0093,0.1487,-0.1755,1.4580,1.3969,0.0381,1.035
18.905,26.17,46.18,1000.03,0.000000,0.000000,0.00,0,0,1.0129,0.1475,-0.1816,1.4122,1.3206,0.2443,1.040
18.911,26.17,46.18,1000.03,0.000000,0.000000,0.00,0,0,1.0068,0.1460,-0.1755,1.1756,1.2061,0.3893,1.032
18.917,26.17,46.18,1000.03,0.000000,0.000000,0.00,0,0,1.0022,0.1479,-0.1814,1.2366,1.3282,0.3817,1.029
18.923,26.17,46.18,1000.03,0.000000,0.000000,0.00,0,0,1.0051,0.1475,-0.1775,1.3435,1.1374,0.3511,1.031
18.929,26.17,46.18,1000.03,0.000000,0.000000,0.00,0,0,1.0042,0.1433,-0.1733,1.2443,1.3282,0.4427,1.029
19.022,26.18,46.10,1000.08,0.000000,0.000000,0.00,0,0,1.0044,0.1414,-0.1860,1.5420,1.6183,-1.0229,1.031
19.028,26.18,46.10,1000.07,0.000000,0.000000,0.00,0,0,1.0059,0.1382,-0.1877,1.5878,1.7634,-1.0611,1.033
19.034,26.19,46.19,1000.07,0.000000,0.000000,0.00,0,0,1.0054,0.1318,-0.1882,1.1374,1.8321,-1.2748,1.031
19.040,26.19,46.19,1000.07,0.000000,0.000000,0.00,0,0,1.0063,0.1467,-0.1882,1.7176,1.7634,-1.3969,1.034
19.046,26.19,46.19,1000.07,0.000000,0.000000,0.00,0,0,1.0059,0.1448,-0.1873,1.9466,1.7023,-1.0153,1.033
19.052,26.19,46.19,1000.07,0.000000,0.000000,0.00,0,0,1.0164,0.1445,-0.1821,1.6794,1.8092,-1.1298,1.043
19.058,26.19,46.19,1000.07,0.000000,0.000000,0.00,0,0,1.0103,0.1472,-0.1829,1.6183,1.9237,-1.2214,1.037
19.064,26.19,46.19,1000.07,0.000000,0.000000,0.00,0,0,1.0059,0.1458,-0.1892,1.7328,1.9924,-0.9084,1.034
19.070,26.19,46.19,1000.07,0.000000,0.000000,0.00,0,0,1.0071,0.1428,-0.1824,1.6565,2.1603,-1.1450,1.033
19.076,26.19,46.19,1000.07,0.000000,0.000000,0.00,0,0,1.0046,0.1445,-0.1821,1.6336,2.3130,-0.9924,1.031
19.247,26.19,46.17,1000.10,0.000000,0.000000,0.00,0,0,1.0107,0.1409,-0.1792,1.9542,2.2595,0.0839,1.036
19.253,26.19,46.17,1000.10,0.000000,0.000000,0.00,0,0,1.0002,0.1440,-0.1770,1.9924,2.5420,-0.2137,1.026
19.259,26.19,46.17,1000.10,0.000000,0.000000,0.00,0,0,1.0071,0.1431,-0.1746,2.0076,2.4427,-0.2977,1.032
19.265,26.19,46.17,1000.10,0.000000,0.000000,0.00,0,0,1.0029,0.1433,-0.1755,2.0534,2.6336,-0.3053,1.028
19.271,26.19,46.17,1000.10,0.000000,0.000000,0.00,0,0,1.0032,0.1423,-0.1675,1.9313,2.6412,-0.4962,1.027
19.277,26.19,46.17,1000.10,0.000000,0.000000,0.00,0,0,0.9995,0.1433,-0.1780,2.1450,2.5038,-0.6107,1.025
19.283,26.19,46.17,1000.10,0.000000,0.000000,0.00,0,0,1.0027,0.1426,-0.1682,1.9771,2.6641,-0.5649,1.027
19.289,26.19,46.17,1000.10,0.000000,0.000000,0.00,0,0,1.0073,0.1462,-0.1707,2.0687,2.5573,-0.7863,1.032
19.295,26.19,46.17,1000.10,0.000000,0.000000,0.00,0,0,1.0037,0.1411,-0.1689,2.2672,2.5191,-0.8244,1.028
19.301,26.19,46.17,1000.10,0.000000,0.000000,0.00,0,0,1.0037,0.1392,-0.1597,2.1527,2.5115,-0.8855,1.026
19.435,26.19,46.17,1000.11,0.000000,0.000000,0.00,0,0,1.0098,0.1553,-0.1548,1.6031,2.0763,-0.4733,1.033
19.441,26.19,46.17,1000.11,0.000000,0.000000,0.00,0,0,1.0066,0.1523,-0.1589,1.6031,1.8168,-0.1756,1.030
19.447,26.19,46.17,1000.11,0.000000,0.000000,0.00,0,0,1.0081,0.1582,-0.1577,1.7328,1.6412,-0.2061,1.033
19.453,26.19,46.17,1000.11,0.000000,0.000000,0.00,0,0,1.0024,0.1519,-0.1638,1.5038,1.8168,-0.0381,1.027
19.459,26.19,46.17,1000.11,0.000000,0.000000,0.00,0,0,1.0051,0.1565,-0.1604,1.4656,1.5649,-0.0381,1.030
19.465,26.19,46.17,1000.11,0.000000,0.000000,0.00,0,0,1.0020,0.1497,-0.1628,1.4046,1.3893,-0.2519,1.026
19.471,26.19,46.17,1000.11,0.000000,0.000000,0.00,0,0,1.0063,0.1531,-0.1628,1.5496,1.3893,0.2595,1.031
19.477,26.19,46.17,1000.11,0.000000,0.000000,0.00,0,0,1.0081,0.1487,-0.1643,1.6336,1.1756,0.2672,1.032
19.483,26.19,46.17,1000.11,0.000000,0.000000,0.00,0,0,1.0054,0.1501,-0.1689,1.4656,1.0076,0.2595,1.030
19.489,26.19,46.17,1000.11,0.000000,0.000000,0.00,0,0,1.0078,0.1467,-0.1646,1.4504,1.2519,0.3053,1.032
19.649,26.19,46.17,1000.07,0.000000,0.000000,0.00,0,0,1.0061,0.1536,-0.1807,1.3588,0.6336,0.2748,1.034
19.655,26.19,46.17,1000.07,0.000000,0.000000,0.00,0,0,1.0073,0.1528,-0.1804,1.3435,0.8092,0.2824,1.035
19.661,26.19,46.17,1000.07,0.000000,0.000000,0.00,0,0,1.0112,0.1565,-0.1707,1.3893,0.6870,0.4962,1.037
19.667,26.19,46.17,1000.07,0.000000,0.000000,0.00,0,0,1.0029,0.1519,-0.1829,1.2595,0.7634,0.4198,1.031
19.673,26.19,46.17,1000.07,0.000000,0.000000,0.00,0,0,1.0085,0.1475,-0.1760,1.4198,0.7939,0.2901,1.034
19.679,26.19,46.17,1000.07,0.000000,0.000000,0.00,0,0,1.0044,0.1497,-0.1687,1.1450,0.8397,0.7557,1.029
19.685,26.19,46.17,1000.07,0.000000,0.000000,0.00,0,0,1.0049,0.1475,-0.1746,1.3588,0.8855,0.6641,1.031
19.691,26.19,46.14,1000.06,0.000000,0.000000,0.00,0,0,1.0088,0.1582,-0.1711,1.3359,0.4962,-0.2443,1.035
19.766,26.19,46.14,1000.06,0.000000,0.000000,0.00,0,0,1.0127,0.1521,-0.1831,1.1679,0.4351,-0.4122,1.040
19.772,26.19,46.14,1000.06,0.000000,0.000000,0.00,0,0,1.0120,0.1594,-0.1824,1.4046,0.6183,0.0458,1.041
19.897,26.19,46.16,1000.06,0.000000,0.000000,0.00,0,0,1.0044,0.1333,-0.1741,1.5115,0.6107,0.4198,1.028
19.903,26.19,46.16,1000.06,0.000000,0.000000,0.00,0,0,1.0081,0.1372,-0.1829,1.3588,0.5954,0.1679,1.034
19.909,26.20,46.15,1000.09,0.000000,0.000000,0.00,0,0,1.0107,0.1399,-0.1707,1.5115,0.4809,0.2443,1.035
19.915,26.20,46.15,1000.09,0.000000,0.000000,0.00,0,0,1.0071,0.1401,-0.1736,1.7252,0.4885,0.1374,1.031
19.921,26.20,46.15,1000.09,0.000000,0.000000,0.00,0,0,1.0056,0.1443,-0.1819,1.7176,0.3130,-0.0763,1.032
19.927,26.20,46.15,1000.09,0.000000,0.000000,0.00,0,0,1.0098,0.1406,-0.1831,1.6718,0.5267,0.3282,1.036
19.933,26.20,46.15,1000.09,0.000000,0.000000,0.00,0,0,1.0112,0.1465,-0.1819,1.6718,0.4962,-0.1832,1.038
19.939,26.20,46.15,1000.09,0.000000,0.000000,0.00,0,0,1.0125,0.1504,-0.1858,1.6947,0.6260,0.0992,1.040
19.945,26.20,46.15,1000.09,0.000000,0.000000,0.00,0,0,1.0110,0.1526,-0.1875,1.6718,0.4962,0.2901,1.039
19.951,26.20,46.15,1000.09,0.000000,0.000000,0.00,0,0,1.0117,0.1506,-0.1809,1.5878,0.6412,0.1450,1.039
20.095,26.17,46.15,1000.05,0.000000,0.000000,0.00,0,0,1.0049,0.1455,-0.1821,1.9084,1.7176,-0.2672,1.032
20.101,26.17,46.15,1000.05,0.000000,0.000000,0.00,0,0,1.0059,0.1479,-0.1904,1.9389,1.6183,-0.1450,1.034
20.107,26.20,46.14,1000.10,0.000000,0.000000,0.00,0,0,1.0049,0.1467,-0.1809,1.7481,1.8473,0.0305,1.032
20.113,26.20,46.14,1000.10,0.000000,0.000000,0.00,0,0,1.0015,0.1436,-0.1802,1.8473,1.9618,0.0610,1.028
20.119,26.20,46.14,1000.10,0.000000,0.000000,0.00,0,0,1.0134,0.1475,-0.1829,1.7710,1.8244,0.1679,1.040
20.125,26.20,46.14,1000.10,0.000000,0.000000,0.00,0,0,1.0054,0.1475,-0.1819,1.7252,1.7557,-0.0610,1.032
20.131,26.20,46.14,1000.10,0.000000,0.000000,0.00,0,0,1.0029,0.1426,-0.1824,1.9008,1.7405,-0.0229,1.029
20.137,26.20,46.14,1000.10,0.000000,0.000000,0.00,0,0,1.0061,0.1484,-0.1843,1.8397,1.7863,0.2137,1.034
20.143,26.20,46.14,1000.10,0.000000,0.000000,0.00,0,0,1.0112,0.1443,-0.1790,1.7786,1.8931,-0.0381,1.037
20.149,26.20,46.14,1000.10,0.000000,0.000000,0.00,0,0,1.0093,0.1411,-0.1860,1.5802,1.7710,0.0229,1.036
20.323,26.21,46.15,1000.09,0.000000,0.000000,0.00,0,0,1.0061,0.1401,-0.1855,2.0153,2.1603,0.6107,1.033
20.329,26.21,46.15,1000.09,0.000000,0.000000,0.00,0,0,1.0100,0.1335,-0.1897,1.9924,2.3817,0.5802,1.036
20.335,26.21,46.15,1000.09,0.000000,0.000000,0.00,0,0,1.0083,0.1355,-0.1814,2.1756,2.3206,0.4733,1.033
20.341,26.21,46.14,1000.07,0.000000,0.000000,0.00,0,0,1.0088,0.1357,-0.1851,2.6565,3.3053,-1.2519,1.035
20.416,26.19,46.13,1000.07,0.000000,0.000000,0.00,0,0,1.0015,0.1401,-0.1741,2.5420,3.1985,-1.5420,1.026
20.422,26.19,46.13,1000.07,0.000000,0.000000,0.00,0,0,1.0046,0.1448,-0.1775,2.7481,3.3053,-1.4122,1.030
20.428,26.19,46.13,1000.07,0.000000,0.000000,0.00,0,0,1.0037,0.1458,-0.1812,2.6947,3.4198,-1.4809,1.030
20.434,26.19,46.13,1000.07,0.000000,0.000000,0.00,0,0,1.0034,0.1506,-0.1748,2.8168,3.3282,-1.5038,1.030
20.440,26.19,46.13,1000.05,0.000000,0.000000,0.00,0,0,1.0010,0.1401,-0.1548,2.1450,2.5115,0.3740,1.023
20.518,26.19,46.13,1000.05,0.000000,0.000000,0.00,0,0,1.0034,0.1323,-0.1531,1.9466,2.4962,0.1756,1.024
20.667,26.20,46.14,1000.09,0.000000,0.000000,0.00,0,0,1.0044,0.1523,-0.1812,1.7710,0.7710,-0.7481,1.032
20.673,26.20,46.14,1000.09,0.000000,0.000000,0.00,0,0,1.0100,0.1655,-0.1765,1.7634,1.0000,-0.4198,1.039
20.679,26.20,46.14,1000.09,0.000000,0.000000,0.00,0,0,1.0056,0.1667,-0.1738,1.5954,1.2137,-0.4198,1.034
20.685,26.20,46.14,1000.09,0.000000,0.000000,0.00,0,0,1.0159,0.1616,-0.1836,1.6183,1.1527,-0.1069,1.045
20.691,26.21,46.18,1000.07,0.000000,0.000000,0.00,0,0,1.0042,0.1606,-0.1829,1.5802,1.3206,-0.3206,1.033
20.697,26.21,46.18,1000.07,0.000000,0.000000,0.00,0,0,1.0117,0.1648,-0.1895,1.5267,1.3282,0.0916,1.042
20.703,26.21,46.18,1000.07,0.000000,0.000000,0.00,0,0,1.0073,0.1550,-0.1829,1.3664,1.6794,0.1374,1.035
20.709,26.21,46.18,1000.07,0.000000,0.000000,0.00,0,0,1.0149,0.1504,-0.1790,1.2595,1.6718,0.2519,1.041
20.715,26.21,46.18,1000.07,0.000000,0.000000,0.00,0,0,1.0081,0.1418,-0.1831,1.3130,1.8626,0.1527,1.034
20.721,26.21,46.18,1000.07,0.000000,0.000000,0.00,0,0,0.9995,0.1406,-0.1721,1.4046,1.7710,0.2366,1.024
20.855,26.17,46.13,1000.05,0.000000,0.000000,0.00,0,0,1.0054,0.1499,-0.1758,1.8015,1.5649,0.0458,1.032
20.861,26.17,46.13,1000.05,0.000000,0.000000,0.00,0,0,1.0078,0.1465,-0.1733,1.9466,1.5496,-0.0610,1.033
20.867,26.17,46.13,1000.05,0.000000,0.000000,0.00,0,0,1.0088,0.1487,-0.1775,1.9695,1.4809,0.0000,1.035
20.873,26.17,46.13,1000.05,0.000000,0.000000,0.00,0,0,0.9998,0.1418,-0.1748,2.0992,1.5420,0.0458,1.025
20.879,26.17,46.13,1000.05,0.000000,0.000000,0.00,0,0,1.0061,0.1436,-0.1819,1.8931,1.5267,-0.1145,1.032
20.885,26.21,46.14,1000.09,0.000000,0.000000,0.00,0,0,1.0066,0.1482,-0.1777,1.8092,1.6031,-0.0152,1.033
20.891,26.21,46.14,1000.09,0.000000,0.000000,0.00,0,0,1.0056,0.1443,-0.1709,1.8626,1.6031,-0.1832,1.030
20.897,26.21,46.14,1000.09,0.000000,0.000000,0.00,0,0,1.0103,0.1482,-0.1755,2.0840,1.7176,-0.1832,1.036
20.903,26.21,46.14,1000.09,0.000000,0.000000,0.00,0,0,1.0083,0.1523,-0.1719,1.9008,1.7863,-0.1221,1.034
20.909,26.21,46.14,1000.09,0.000000,0.000000,0.00,0,0,1.0020,0.1482,-0.1682,1.8244,1.7786,-0.3359,1.027
21.066,26.18,46.12,1000.04,0.000000,0.000000,0.00,0,0,1.0027,0.1411,-0.1792,1.9084,1.8321,-0.1832,1.028
21.073,26.18,46.12,1000.04,0.000000,0.000000,0.00,0,0,1.0027,0.1421,-0.1721,1.9008,1.7863,-0.1832,1.027
21.079,26.18,46.13,1000.11,0.000000,0.000000,0.00,0,0,1.0098,0.1448,-0.1746,1.8779,1.7939,-0.0458,1.035
21.085,26.21,46.13,1000.11,0.000000,0.000000,0.00,0,0,1.0081,0.1462,-0.1755,1.9389,1.8168,-0.2977,1.034
21.090,26.21,46.13,1000.11,0.000000,0.000000,0.00,0,0,1.0112,0.1470,-0.1760,1.8931,1.5725,-0.2366,1.037
21.097,26.21,46.13,1000.11,0.000000,0.000000,0.00,0,0,1.0066,0.1475,-0.1743,1.7863,1.7557,0.0381,1.032
21.103,26.21,46.13,1000.11,0.000000,0.000000,0.00,0,0,1.0088,0.1411,-0.1804,1.7176,2.0000,-0.1679,1.034
21.108,26.21,46.13,1000.11,0.000000,0.000000,0.00,0,0,1.0051,0.1440,-0.1802,1.8397,1.8015,0.0916,1.031
21.115,26.21,46.13,1000.11,0.000000,0.000000,0.00,0,0,1.0129,0.1470,-0.1721,1.8321,1.9237,0.0839,1.038
21.121,26.21,46.13,1000.11,0.000000,0.000000,0.00,0,0,1.0068,0.1458,-0.1829,1.7099,1.9084,-0.0610,1.034
21.325,26.21,46.12,1000.06,0.000000,0.000000,0.00,0,0,0.9988,0.1396,-0.1626,1.7328,1.4733,-0.3053,1.022
21.331,26.22,46.11,1000.11,0.000000,0.000000,0.00,0,0,1.0134,0.1479,-0.1738,1.6412,1.6947,-0.0458,1.039
21.405,26.22,46.11,1000.11,0.000000,0.000000,0.00,0,0,1.0073,0.1528,-0.1729,1.7176,1.6718,-0.2519,1.033
21.411,26.22,46.11,1000.11,0.000000,0.000000,0.00,0,0,1.0088,0.1499,-0.1707,1.7405,1.7634,0.0458,1.034
21.417,26.22,46.11,1000.11,0.000000,0.000000,0.00,0,0,1.0098,0.1416,-0.1697,1.8244,1.5802,-0.0076,1.034
21.423,26.22,46.11,1000.11,0.000000,0.000000,0.00,0,0,1.0007,0.1487,-0.1677,1.7099,1.8168,-0.0076,1.026
21.429,26.22,46.11,1000.11,0.000000,0.000000,0.00,0,0,1.0078,0.1523,-0.1672,1.7634,1.7481,0.1450,1.033
21.434,26.22,46.11,1000.11,0.000000,0.000000,0.00,0,0,1.0010,0.1479,-0.1677,2.0305,1.7405,0.0076,1.026
21.440,26.22,46.11,1000.11,0.000000,0.000000,0.00,0,0,1.0056,0.1445,-0.1677,1.9313,1.5496,-0.2214,1.030
21.446,26.22,46.11,1000.11,0.000000,0.000000,0.00,0,0,1.0029,0.1514,-0.1787,1.9542,1.5344,0.1450,1.030
21.727,26.22,46.11,1000.05,0.000000,0.000000,0.00,0,0,1.0098,0.1519,-0.1694,1.5038,0.9542,0.8931,1.035
21.733,26.22,46.11,1000.05,0.000000,0.000000,0.00,0,0,1.0049,0.1528,-0.1814,1.4351,0.9542,1.0000,1.032
21.739,26.22,46.11,1000.05,0.000000,0.000000,0.00,0,0,1.0103,0.1497,-0.1741,1.3664,0.8015,0.8550,1.036
21.745,26.22,46.11,1000.05,0.000000,0.000000,0.00,0,0,1.0105,0.1504,-0.1758,1.4656,0.9466,0.7557,1.037
21.751,26.22,46.11,1000.05,0.000000,0.000000,0.00,0,0,1.0129,0.1494,-0.1802,1.6412,0.8855,0.7863,1.040
21.757,26.22,46.11,1000.05,0.000000,0.000000,0.00,0,0,1.0088,0.1475,-0.1707,1.3893,1.1374,0.5954,1.034
21.763,26.22,46.05,1000.11,0.000000,0.000000,0.00,0,0,1.0125,0.1440,-0.1802,1.4275,0.9847,0.9084,1.038
21.769,26.22,46.05,1000.11,0.000000,0.000000,0.00,0,0,1.0105,0.1460,-0.1733,1.4733,1.2672,0.7634,1.036
21.775,26.22,46.05,1000.11,0.000000,0.000000,0.00,0,0,1.0090,0.1472,-0.1736,1.4427,1.1145,0.7252,1.034
21.781,26.22,46.05,1000.11,0.000000,0.000000,0.00,0,0,1.0034,0.1519,-0.1790,1.2977,1.2137,0.5725,1.031
21.934,26.20,46.10,1000.08,0.000000,0.000000,0.00,0,0,1.0073,0.1492,-0.1809,1.8626,1.9008,0.1832,1.034
21.940,26.20,46.10,1000.08,0.000000,0.000000,0.00,0,0,1.0032,0.1462,-0.1729,1.9695,1.6718,0.3359,1.028
21.946,26.20,46.10,1000.08,0.000000,0.000000,0.00,0,0,1.0044,0.1416,-0.1768,2.0229,1.9160,0.2137,1.030
21.952,26.20,46.10,1000.08,0.000000,0.000000,0.00,0,0,1.0042,0.1438,-0.1809,1.9237,1.9847,0.2137,1.030
21.958,26.22,46.11,1000.08,0.000000,0.000000,0.00,0,0,1.0061,0.1414,-0.1750,2.1985,1.7863,0.2977,1.031
21.964,26.22,46.11,1000.08,0.000000,0.000000,0.00,0,0,1.0039,0.1487,-0.1780,2.1527,1.6718,0.1450,1.030
21.970,26.22,46.11,1000.08,0.000000,0.000000,0.00,0,0,1.0071,0.1472,-0.1775,2.0076,1.9084,0.2137,1.033
21.976,26.22,46.11,1000.08,0.000000,0.000000,0.00,0,0,1.0112,0.1462,-0.1729,2.1298,1.7863,0.4351,1.036
21.982,26.22,46.11,1000.08,0.000000,0.000000,0.00,0,0,1.0125,0.1501,-0.1748,2.3130,1.8168,0.1832,1.038
21.988,26.22,46.11,1000.08,0.000000,0.000000,0.00,0,0,1.0051,0.1521,-0.1755,2.2137,1.8931,0.1985,1.032
22.156,26.23,46.09,1000.08,0.000000,0.000000,0.00,0,0,1.0022,0.1458,-0.1729,1.9084,1.7634,-0.2366,1.027
22.162,26.23,46.09,1000.08,0.000000,0.000000,0.00,0,0,1.0078,0.1450,-0.1777,1.8550,1.9313,-0.2137,1.034
22.168,26.23,46.09,1000.08,0.000000,0.000000,0.00,0,0,1.0088,0.1589,-0.1707,1.9695,1.7786,-0.1908,1.035
22.174,26.23,46.09,1000.08,0.000000,0.000000,0.00,0,0,1.0046,0.1550,-0.1719,1.8702,1.7328,-0.0687,1.031
22.180,26.23,46.09,1000.08,0.000000,0.000000,0.00,0,0,1.0024,0.1504,-0.1738,1.8092,1.8550,0.2137,1.028
22.186,26.23,46.09,1000.08,0.000000,0.000000,0.00,0,0,1.0059,0.1465,-0.1709,1.5954,1.6794,0.0687,1.031
22.192,26.23,46.09,1000.08,0.000000,0.000000,0.00,0,0,1.0105,0.1533,-0.1741,1.7634,1.6565,0.1908,1.037
22.198,26.23,46.09,1000.08,0.000000,0.000000,0.00,0,0,1.0068,0.1528,-0.1763,1.8168,1.5267,0.3282,1.034
22.204,26.23,46.09,1000.08,0.000000,0.000000,0.00,0,0,1.0046,0.1450,-0.1716,1.7939,1.6870,0.3511,1.029
22.210,26.23,46.09,1000.08,0.000000,0.000000,0.00,0,0,1.0112,0.1431,-0.1802,1.7405,1.5649,0.2748,1.037
22.335,26.19,46.09,1000.03,0.000000,0.000000,0.00,0,0,1.0007,0.1406,-0.1702,1.7710,0.7863,-0.4198,1.025
22.341,26.19,46.09,1000.03,0.000000,0.000000,0.00,0,0,1.0027,0.1499,-0.1743,1.6260,0.7405,-0.4580,1.029
22.347,26.19,46.09,1000.10,0.000000,0.000000,0.00,0,0,1.0049,0.1521,-0.1787,1.6336,0.8473,-0.3664,1.032
22.354,26.23,46.09,1000.10,0.000000,0.000000,0.00,0,0,1.0022,0.1497,-0.1702,1.5649,1.8321,-0.0076,1.027
22.428,26.23,46.09,1000.10,0.000000,0.000000,0.00,0,0,0.9998,0.1467,-0.1833,1.5267,1.9847,-0.2290,1.027
22.434,26.23,46.09,1000.10,0.000000,0.000000,0.00,0,0,1.0059,0.1418,-0.1726,1.5038,2.0534,-0.0152,1.030
22.440,26.23,46.09,1000.10,0.000000,0.000000,0.00,0,0,1.0044,0.1418,-0.1711,1.6336,1.9313,-0.1527,1.029
22.446,26.22,46.06,1000.09,0.000000,0.000000,0.00,0,0,1.0061,0.1392,-0.1799,1.7328,1.9618,-0.2290,1.031
22.452,26.22,46.06,1000.09,0.000000,0.000000,0.00,0,0,1.0073,0.1389,-0.1770,1.8626,2.1527,-0.3359,1.032
22.458,26.22,46.06,1000.09,0.000000,0.000000,0.00,0,0,1.0061,0.1479,-0.1831,2.0000,2.3588,-0.4275,1.033
22.614,26.22,46.11,1000.07,0.000000,0.000000,0.00,0,0,1.0088,0.1472,-0.1758,1.9847,1.9389,-0.1679,1.035
22.620,26.22,46.11,1000.07,0.000000,0.000000,0.00,0,0,1.0105,0.1487,-0.1721,2.0534,2.0916,0.1069,1.036
22.626,26.22,46.11,1000.07,0.000000,0.000000,0.00,0,0,1.0103,0.1506,-0.1836,1.9313,2.0229,-0.0381,1.038
22.632,26.22,46.11,1000.07,0.000000,0.000000,0.00,0,0,1.0129,0.1528,-0.1733,2.0611,2.0611,-0.1527,1.039
22.638,26.22,46.11,1000.07,0.000000,0.000000,0.00,0,0,1.0056,0.1611,-0.1726,1.8626,2.1298,-0.0839,1.033
22.644,26.23,46.13,1000.07,0.000000,0.000000,0.00,0,0,1.0029,0.1541,-0.1802,2.0458,2.4275,-0.0763,1.031
22.650,26.23,46.13,1000.07,0.000000,0.000000,0.00,0,0,1.0103,0.1538,-0.1836,1.9389,2.3664,-0.1985,1.038
22.656,26.23,46.13,1000.07,0.000000,0.000000,0.00,0,0,1.0005,0.1528,-0.1724,1.9313,2.4580,-0.0152,1.027
22.661,26.23,46.13,1000.07,0.000000,0.000000,0.00,0,0,1.0034,0.1536,-0.1750,1.9618,2.6107,-0.0229,1.030
22.668,26.23,46.13,1000.07,0.000000,0.000000,0.00,0,0,1.0061,0.1533,-0.1785,2.1069,2.5725,-0.1832,1.033
22.799,26.20,46.08,1000.02,0.000000,0.000000,0.00,0,0,1.0127,0.1555,-0.1665,1.6565,1.3740,0.1985,1.038
22.805,26.20,46.08,1000.02,0.000000,0.000000,0.00,0,0,1.0066,0.1494,-0.1582,1.5420,1.3893,0.0229,1.030
22.811,26.20,46.08,1000.02,0.000000,0.000000,0.00,0,0,1.0071,0.1501,-0.1738,1.5115,1.2672,0.3206,1.033
22.817,26.20,46.08,1000.02,0.000000,0.000000,0.00,0,0,1.0078,0.1489,-0.1575,1.5496,1.1908,0.1450,1.031
22.823,26.20,46.08,1000.02,0.000000,0.000000,0.00,0,0,1.0071,0.1577,-0.1643,1.4885,1.0534,0.0687,1.033
22.829,26.20,46.08,1000.02,0.000000,0.000000,0.00,0,0,1.0085,0.1445,-0.1672,1.4275,1.1374,0.2443,1.032
22.835,26.20,46.08,1000.09,0.000000,0.000000,0.00,0,0,1.0068,0.1475,-0.1624,1.5802,1.1374,0.1298,1.030
22.841,26.23,46.13,1000.09,0.000000,0.000000,0.00,0,0,1.0059,0.1516,-0.1599,1.3053,0.9847,0.1221,1.030
22.847,26.23,46.13,1000.09,0.000000,0.000000,0.00,0,0,1.0005,0.1450,-0.1594,1.2290,0.7405,-0.0839,1.023
22.853,26.23,46.13,1000.09,0.000000,0.000000,0.00,0,0,1.0071,0.1519,-0.1584,1.3664,0.7099,-0.0992,1.031
23.048,26.24,46.08,1000.09,0.000000,0.000000,0.00,0,0,1.0063,0.1467,-0.1885,0.5496,-1.0229,0.7939,1.034
23.054,26.24,46.08,1000.09,0.000000,0.000000,0.00,0,0,1.0007,0.1494,-0.1863,0.8550,-1.1145,0.2901,1.029
23.060,26.24,46.08,1000.09,0.000000,0.000000,0.00,0,0,1.0044,0.1479,-0.1951,0.6031,-1.0763,0.6565,1.034
23.066,26.24,46.08,1000.09,0.000000,0.000000,0.00,0,0,1.0068,0.1443,-0.1836,0.7328,-0.9160,0.6336,1.034
23.071,26.24,46.08,1000.09,0.000000,0.000000,0.00,0,0,1.0020,0.1467,-0.1841,0.5115,-0.7863,0.6870,1.029
23.078,26.24,46.08,1000.09,0.000000,0.000000,0.00,0,0,1.0083,0.1370,-0.1802,0.5420,-0.8855,0.4198,1.033
23.083,26.24,46.08,1000.09,0.000000,0.000000,0.00,0,0,0.9944,0.1426,-0.1785,0.3359,-0.8550,0.3206,1.020
23.089,26.24,46.08,1000.09,0.000000,0.000000,0.00,0,0,1.0049,0.1353,-0.1741,0.4809,-1.0611,0.3206,1.029
23.096,26.24,46.08,1000.09,0.000000,0.000000,0.00,0,0,1.0005,0.1331,-0.1858,0.4427,-0.9008,0.2519,1.026
23.102,26.24,46.08,1000.09,0.000000,0.000000,0.00,0,0,1.0042,0.1353,-0.1770,0.5038,-0.8397,0.1221,1.029
23.315,26.24,46.07,1000.08,0.000000,0.000000,0.00,0,0,1.0061,0.1504,-0.1895,1.8473,0.8397,1.0534,1.035
23.321,26.24,46.06,1000.07,0.000000,0.000000,0.00,0,0,1.0061,0.1440,-0.1941,1.7634,1.9466,0.5573,1.035
23.395,26.24,46.05,1000.08,0.000000,0.000000,0.00,0,0,1.0029,0.1458,-0.1855,1.9695,2.4656,-0.3511,1.030
23.471,26.24,46.05,1000.08,0.000000,0.000000,0.00,0,0,1.0056,0.1406,-0.1890,2.2214,2.2672,-0.3511,1.033
23.477,26.24,46.07,1000.10,0.000000,0.000000,0.00,0,0,1.0115,0.1616,-0.1809,1.7710,1.8015,-0.2061,1.040
23.552,26.24,46.07,1000.10,0.000000,0.000000,0.00,0,0,1.0149,0.1604,-0.1897,1.9084,1.7176,-0.1374,1.045
23.558,26.24,46.07,1000.10,0.000000,0.000000,0.00,0,0,1.0107,0.1638,-0.1904,1.9695,1.7252,0.0534,1.041
23.563,26.24,46.07,1000.10,0.000000,0.000000,0.00,0,0,1.0107,0.1631,-0.1851,2.0458,1.5420,0.3206,1.040
23.569,26.24,46.07,1000.10,0.000000,0.000000,0.00,0,0,1.0098,0.1616,-0.1799,1.8473,1.6031,0.4351,1.038
23.575,26.24,46.07,1000.10,0.000000,0.000000,0.00,0,0,1.0100,0.1599,-0.1882,1.8855,1.8779,0.5115,1.040
23.703,26.23,46.06,1000.06,0.000000,0.000000,0.00,0,0,1.0005,0.1396,-0.1831,2.0611,2.1527,0.3206,1.027
23.709,26.23,46.06,1000.05,0.000000,0.000000,0.00,0,0,1.0137,0.1567,-0.1931,1.9695,1.9313,-0.4275,1.044
23.783,26.24,46.07,1000.07,0.000000,0.000000,0.00,0,0,1.0095,0.1516,-0.1917,1.8244,1.8626,-0.1756,1.039
23.789,26.24,46.07,1000.07,0.000000,0.000000,0.00,0,0,1.0068,0.1582,-0.1917,1.8550,1.7328,-0.1298,1.037
23.794,26.24,46.07,1000.07,0.000000,0.000000,0.00,0,0,1.0085,0.1604,-0.1917,1.8626,1.8779,-0.2519,1.039
23.800,26.24,46.07,1000.07,0.000000,0.000000,0.00,0,0,1.0142,0.1597,-0.1975,1.6565,1.8931,0.0458,1.045
23.806,26.24,46.07,1000.07,0.000000,0.000000,0.00,0,0,1.0083,0.1636,-0.1870,1.8473,1.8397,0.1985,1.038
23.812,26.24,46.08,1000.09,0.000000,0.000000,0.00,0,0,1.0039,0.1545,-0.1892,1.7252,1.9313,0.3511,1.033
23.818,26.24,46.08,1000.09,0.000000,0.000000,0.00,0,0,1.0083,0.1594,-0.1863,1.8168,2.0229,0.2977,1.038
23.824,26.24,46.08,1000.09,0.000000,0.000000,0.00,0,0,1.0054,0.1536,-0.1860,1.8015,1.9313,0.2290,1.034
23.912,26.23,46.05,1000.08,0.000000,0.000000,0.00,0,0,1.0083,0.1338,-0.1882,1.8244,2.3130,-0.7939,1.034
23.918,26.23,46.05,1000.08,0.000000,0.000000,0.00,0,0,1.0066,0.1365,-0.1772,2.0076,2.3740,-0.4122,1.031
23.924,26.23,46.05,1000.08,0.000000,0.000000,0.00,0,0,1.0044,0.1372,-0.1790,1.5496,2.4351,-1.0382,1.029
23.930,26.23,46.05,1000.08,0.000000,0.000000,0.00,0,0,1.0029,0.1316,-0.1750,1.2290,2.3664,-1.0153,1.027
23.936,26.23,46.05,1000.08,0.000000,0.000000,0.00,0,0,1.0020,0.1318,-0.1758,1.2137,2.3969,-1.3435,1.026
23.942,26.23,46.05,1000.08,0.000000,0.000000,0.00,0,0,1.0034,0.1372,-0.1946,1.6565,2.1985,-1.5878,1.031
23.948,26.23,46.05,1000.08,0.000000,0.000000,0.00,0,0,0.9980,0.1409,-0.1833,1.6260,2.2443,-1.8397,1.024
23.954,26.21,46.04,1000.04,0.000000,0.000000,0.00,0,0,1.0076,0.1641,-0.1948,1.6870,3.1908,-1.4656,1.039
24.029,26.21,46.04,1000.04,0.000000,0.000000,0.00,0,0,1.0156,0.1597,-0.1804,1.4962,3.1756,-1.5573,1.044
24.035,26.21,46.04,1000.04,0.000000,0.000000,0.00,0,0,1.0054,0.1611,-0.1860,1.7481,3.2214,-1.2824,1.035
24.150,26.23,46.05,1000.09,0.000000,0.000000,0.00,0,0,1.0090,0.1541,-0.1726,1.6336,1.2519,1.0305,1.035
24.224,26.24,46.05,1000.09,0.000000,0.000000,0.00,0,0,1.0002,0.1501,-0.1785,1.6641,1.5191,1.0153,1.027
24.230,26.24,46.05,1000.09,0.000000,0.000000,0.00,0,0,1.0059,0.1399,-0.1814,1.6107,1.6870,0.7023,1.032
24.305,26.23,46.04,1000.07,0.000000,0.000000,0.00,0,0,1.0029,0.1362,-0.1702,1.5725,1.4427,0.7557,1.026
24.311,26.23,46.04,1000.07,0.000000,0.000000,0.00,0,0,1.0051,0.1377,-0.1787,1.6718,1.6489,0.4351,1.030
24.317,26.23,46.04,1000.07,0.000000,0.000000,0.00,0,0,1.0046,0.1313,-0.1821,1.6565,1.3969,0.3511,1.029
24.323,26.23,46.04,1000.07,0.000000,0.000000,0.00,0,0,1.0037,0.1343,-0.1677,1.5954,1.3664,0.5420,1.026
24.329,26.23,46.04,1000.07,0.000000,0.000000,0.00,0,0,1.0073,0.1406,-0.1819,1.6641,1.4656,0.1832,1.033
24.334,26.23,46.04,1000.07,0.000000,0.000000,0.00,0,0,1.0039,0.1331,-0.1819,1.5344,1.4275,0.0839,1.029
24.340,26.23,46.04,1000.07,0.000000,0.000000,0.00,0,0,1.0063,0.1384,-0.1758,1.7557,1.4885,-0.3359,1.031
24.485,26.21,46.04,1000.05,0.000000,0.000000,0.00,0,0,1.0085,0.1631,-0.1968,2.7939,2.0076,0.8168,1.040
24.491,26.21,46.04,1000.05,0.000000,0.000000,0.00,0,0,1.0115,0.1665,-0.1877,2.8779,2.0458,0.7863,1.042
24.497,26.24,46.01,1000.12,0.000000,0.000000,0.00,0,0,1.0098,0.1589,-0.1836,2.9008,2.1603,1.1527,1.039
24.503,26.24,46.01,1000.12,0.000000,0.000000,0.00,0,0,1.0068,0.1555,-0.1711,2.6641,1.8015,1.2519,1.033
24.509,26.24,46.01,1000.12,0.000000,0.000000,0.00,0,0,1.0093,0.1565,-0.1687,2.4198,2.0229,1.2824,1.035
24.515,26.24,46.01,1000.12,0.000000,0.000000,0.00,0,0,1.0029,0.1563,-0.1587,2.2519,1.7939,1.2214,1.027
24.521,26.24,46.01,1000.12,0.000000,0.000000,0.00,0,0,1.0059,0.1511,-0.1702,2.1069,1.7252,1.3282,1.031
24.527,26.24,46.01,1000.12,0.000000,0.000000,0.00,0,0,1.0056,0.1455,-0.1577,1.9618,1.6031,1.2366,1.028
24.533,26.24,46.01,1000.12,0.000000,0.000000,0.00,0,0,1.0039,0.1453,-0.1697,1.9008,1.5115,1.2595,1.028
24.539,26.24,46.01,1000.12,0.000000,0.000000,0.00,0,0,1.0068,0.1431,-0.1665,2.0382,1.3359,1.0916,1.030
24.685,26.22,46.03,1000.06,0.000000,0.000000,0.00,0,0,0.9998,0.1411,-0.1831,1.4656,0.2672,1.0382,1.026
24.691,26.22,46.01,1000.10,0.000000,0.000000,0.00,0,0,0.9998,0.1365,-0.1777,1.3664,0.1756,0.9389,1.025
24.697,26.25,46.01,1000.10,0.000000,0.000000,0.00,0,0,1.0012,0.1409,-0.1858,1.4504,0.3206,0.9313,1.028
24.703,26.25,46.01,1000.10,0.000000,0.000000,0.00,0,0,1.0034,0.1394,-0.1738,1.2061,0.1832,0.6489,1.028
24.709,26.25,46.01,1000.10,0.000000,0.000000,0.00,0,0,1.0015,0.1396,-0.1829,1.4427,0.3588,0.6260,1.028
24.715,26.25,46.01,1000.10,0.000000,0.000000,0.00,0,0,1.0015,0.1323,-0.1777,1.3893,0.3817,0.4885,1.026
24.721,26.25,46.01,1000.10,0.000000,0.000000,0.00,0,0,1.0046,0.1384,-0.1802,1.6260,0.1069,0.3511,1.030
24.727,26.25,46.01,1000.10,0.000000,0.000000,0.00,0,0,1.0056,0.1335,-0.1863,1.5420,0.3053,0.2824,1.031
24.733,26.25,46.01,1000.10,0.000000,0.000000,0.00,0,0,0.9983,0.1414,-0.1917,1.5878,0.2290,0.2214,1.026
24.739,26.25,46.01,1000.10,0.000000,0.000000,0.00,0,0,0.9985,0.1484,-0.1902,1.5878,0.3282,0.1985,1.027
24.885,26.22,46.03,1000.10,0.000000,0.000000,0.00,0,0,0.9985,0.1501,-0.1711,2.1298,0.6565,-0.6412,1.024
24.891,26.25,46.03,1000.10,0.000000,0.000000,0.00,0,0,0.9956,0.1326,-0.1929,1.7786,0.8473,-0.1985,1.023
24.897,26.25,46.03,1000.10,0.000000,0.000000,0.00,0,0,0.9958,0.1543,-0.1863,1.6336,0.9313,-0.3893,1.025
24.903,26.25,46.03,1000.10,0.000000,0.000000,0.00,0,0,1.0002,0.1448,-0.1841,1.9008,0.8931,-0.6031,1.027
24.909,26.25,46.03,1000.10,0.000000,0.000000,0.00,0,0,0.9963,0.1338,-0.1921,1.7328,1.0687,-0.5878,1.023
24.915,26.25,46.03,1000.10,0.000000,0.000000,0.00,0,0,1.0095,0.1213,-0.2068,2.0229,1.5573,-1.1679,1.038
24.921,26.25,46.03,1000.10,0.000000,0.000000,0.00,0,0,0.9846,0.1313,-0.1355,1.2443,0.9084,-1.5267,1.003
24.927,26.25,46.03,1000.10,0.000000,0.000000,0.00,0,0,0.9900,0.1492,-0.1521,1.2366,0.5802,-1.2290,1.013
24.933,26.25,46.03,1000.10,0.000000,0.000000,0.00,0,0,0.9792,0.1333,-0.1484,0.9466,0.3664,-1.4122,0.999
24.939,26.25,46.03,1000.10,0.000000,0.000000,0.00,0,0,0.9854,0.1423,-0.1743,1.0687,0.1603,-1.5191,1.011
24.998,26.23,46.03,1000.03,0.000000,0.000000,0.00,0,0,1.0088,0.1853,-0.1816,0.8092,2.0076,-0.1603,1.042
25.004,26.23,46.03,1000.03,0.000000,0.000000,0.00,0,0,1.0059,0.1663,-0.1956,1.4198,2.2061,0.1145,1.038
25.010,26.23,46.03,1000.03,0.000000,0.000000,0.00,0,0,1.0032,0.1560,-0.1914,1.9618,2.6947,-0.8015,1.033
25.085,26.24,46.02,1000.06,0.000000,0.000000,0.00,0,0,1.0061,0.1631,-0.1946,2.0763,2.7481,-0.8321,1.038
25.090,26.24,46.02,1000.06,0.000000,0.000000,0.00,0,0,1.0066,0.1641,-0.1992,2.2366,2.7023,-0.4962,1.039
25.096,26.24,46.02,1000.06,0.000000,0.000000,0.00,0,0,1.0083,0.1689,-0.1907,2.0382,2.8550,-0.2366,1.040
25.103,26.24,46.02,1000.06,0.000000,0.000000,0.00,0,0,1.0127,0.1633,-0.1882,1.8473,2.7863,-0.0687,1.043
25.109,26.24,46.02,1000.06,0.000000,0.000000,0.00,0,0,1.0168,0.1692,-0.1833,2.0153,2.9466,-0.0839,1.047
25.115,26.24,46.02,1000.06,0.000000,0.000000,0.00,0,0,1.0063,0.1621,-0.1902,2.1221,3.0305,0.4122,1.037
25.120,26.24,46.02,1000.06,0.000000,0.000000,0.00,0,0,1.0107,0.1533,-0.1711,1.9924,2.9771,0.3053,1.037
25.202,26.23,46.02,1000.03,0.000000,0.000000,0.00,0,0,1.0012,0.1599,-0.1885,2.1374,0.9466,0.6412,1.031
25.208,26.23,46.02,1000.03,0.000000,0.000000,0.00,0,0,1.0020,0.1658,-0.1760,1.9618,1.0229,0.7863,1.031
25.214,26.23,46.02,1000.03,0.000000,0.000000,0.00,0,0,1.0039,0.1687,-0.1809,1.9771,0.7939,1.0229,1.034
25.220,26.23,46.02,1000.03,0.000000,0.000000,0.00,0,0,1.0012,0.1558,-0.1804,1.8244,0.9084,0.9313,1.029
25.226,26.23,46.02,1000.03,0.000000,0.000000,0.00,0,0,0.9995,0.1563,-0.1750,1.8397,0.8626,1.0840,1.027
25.232,26.23,46.02,1000.03,0.000000,0.000000,0.00,0,0,0.9968,0.1523,-0.1838,1.6641,0.9466,1.1069,1.025
25.238,26.23,46.02,1000.03,0.000000,0.000000,0.00,0,0,1.0046,0.1450,-0.1809,1.7023,1.0000,1.1450,1.031
25.244,26.23,46.02,1000.03,0.000000,0.000000,0.00,0,0,0.9993,0.1436,-0.1858,1.6794,1.0382,1.1221,1.026
25.250,26.23,46.02,1000.03,0.000000,0.000000,0.00,0,0,1.0049,0.1399,-0.1865,1.6947,0.8626,1.1069,1.032
25.256,26.23,46.02,1000.03,0.000000,0.000000,0.00,0,0,0.9995,0.1348,-0.1750,1.4733,0.8015,1.0305,1.024
25.328,26.25,46.04,1000.09,0.000000,0.000000,0.00,0,0,1.0076,0.1504,-0.1958,1.3588,1.3282,0.0992,1.037
25.334,26.25,46.04,1000.09,0.000000,0.000000,0.00,0,0,1.0078,0.1509,-0.1975,1.3282,1.2290,0.0229,1.038
25.340,26.25,46.04,1000.09,0.000000,0.000000,0.00,0,0,1.0044,0.1550,-0.1968,1.4122,1.6183,0.1679,1.035
25.346,26.25,46.04,1000.09,0.000000,0.000000,0.00,0,0,1.0068,0.1479,-0.1951,1.3435,1.7328,0.0763,1.036
25.352,26.25,46.04,1000.09,0.000000,0.000000,0.00,0,0,1.0049,0.1472,-0.1953,1.4733,1.6412,-0.1145,1.034
25.358,26.25,46.04,1000.09,0.000000,0.000000,0.00,0,0,1.0039,0.1406,-0.1892,1.5878,1.6718,-0.0992,1.031
25.364,26.25,46.04,1000.09,0.000000,0.000000,0.00,0,0,1.0051,0.1448,-0.1958,1.6031,1.7023,-0.2901,1.034
25.370,26.25,46.04,1000.09,0.000000,0.000000,0.00,0,0,1.0054,0.1443,-0.1858,1.6489,1.7939,-0.2519,1.033
25.376,26.27,46.09,1000.09,0.000000,0.000000,0.00,0,0,1.0015,0.1462,-0.1965,1.6641,2.0229,-0.1145,1.031
25.381,26.27,46.09,1000.09,0.000000,0.000000,0.00,0,0,1.0044,0.1428,-0.1897,1.5573,1.7939,-0.5573,1.032
25.527,26.26,46.02,1000.09,0.000000,0.000000,0.00,0,0,1.0044,0.1519,-0.1836,2.1527,2.3893,-1.0840,1.032
25.533,26.26,46.02,1000.09,0.000000,0.000000,0.00,0,0,1.0132,0.1621,-0.1902,2.1069,2.4733,-1.0229,1.044
25.539,26.26,46.02,1000.09,0.000000,0.000000,0.00,0,0,1.0139,0.1663,-0.1816,1.9389,2.6031,-0.8168,1.043
25.545,26.26,46.02,1000.09,0.000000,0.000000,0.00,0,0,1.0066,0.1633,-0.1846,1.9924,2.6794,-0.6718,1.036
25.551,26.26,46.02,1000.09,0.000000,0.000000,0.00,0,0,1.0068,0.1685,-0.1821,1.9084,2.4427,-0.5115,1.037
25.557,26.26,46.02,1000.09,0.000000,0.000000,0.00,0,0,1.0059,0.1655,-0.1960,1.8702,2.8244,-0.3664,1.038
25.563,26.26,46.02,1000.09,0.000000,0.000000,0.00,0,0,1.0095,0.1675,-0.1904,1.8855,2.7634,-0.2214,1.041
25.569,26.26,46.03,1000.08,0.000000,0.000000,0.00,0,0,1.0120,0.1609,-0.1787,1.8168,2.9008,-0.1374,1.040
25.575,26.27,46.03,1000.08,0.000000,0.000000,0.00,0,0,1.0071,0.1589,-0.1814,1.9618,3.0382,-0.0687,1.036
25.581,26.27,46.03,1000.08,0.000000,0.000000,0.00,0,0,1.0073,0.1609,-0.1836,2.0382,2.7405,0.1450,1.036
25.679,26.25,46.01,1000.09,0.000000,0.000000,0.00,0,0,1.0022,0.1555,-0.1816,2.0611,2.6031,-0.6641,1.030
25.685,26.25,46.01,1000.09,0.000000,0.000000,0.00,0,0,1.0032,0.1567,-0.1714,2.0458,2.4885,-0.6794,1.030
25.691,26.25,46.01,1000.09,0.000000,0.000000,0.00,0,0,1.0020,0.1521,-0.1821,2.1298,2.2977,-1.0840,1.030
25.697,26.25,46.01,1000.09,0.000000,0.000000,0.00,0,0,1.0049,0.1533,-0.1797,2.0611,2.5496,-0.6260,1.032
25.703,26.25,46.01,1000.09,0.000000,0.000000,0.00,0,0,1.0056,0.1511,-0.1765,2.0153,2.2977,-0.8397,1.032
25.709,26.25,46.01,1000.09,0.000000,0.000000,0.00,0,0,1.0110,0.1572,-0.1748,2.1145,2.2672,-0.7710,1.038
25.715,26.25,46.01,1000.09,0.000000,0.000000,0.00,0,0,1.0078,0.1614,-0.1697,2.0076,2.2748,-0.6412,1.035
25.721,26.25,46.01,1000.09,0.000000,0.000000,0.00,0,0,1.0112,0.1594,-0.1814,1.9924,2.2443,-0.6489,1.040
25.727,26.25,46.01,1000.09,0.000000,0.000000,0.00,0,0,1.0027,0.1646,-0.1748,2.0153,2.1145,-0.3282,1.031
25.733,26.25,46.01,1000.09,0.000000,0.000000,0.00,0,0,1.0081,0.1587,-0.1714,2.0916,2.1527,-0.1221,1.035
25.823,26.25,46.02,1000.05,0.000000,0.000000,0.00,0,0,1.0081,0.1411,-0.1838,2.0611,2.2977,0.2977,1.034
25.829,26.25,46.02,1000.06,0.000000,0.000000,0.00,0,0,1.0037,0.1553,-0.1848,1.8168,2.0840,-0.0687,1.032
25.904,26.27,46.00,1000.10,0.000000,0.000000,0.00,0,0,1.0073,0.1570,-0.1768,1.8321,2.0687,-0.0610,1.035
25.910,26.27,46.00,1000.10,0.000000,0.000000,0.00,0,0,1.0083,0.1523,-0.1748,1.7176,2.0229,-0.2290,1.035
25.916,26.27,46.00,1000.10,0.000000,0.000000,0.00,0,0,1.0103,0.1563,-0.1868,1.7328,2.0687,-0.0076,1.039
25.922,26.27,46.00,1000.10,0.000000,0.000000,0.00,0,0,1.0020,0.1514,-0.1753,1.8550,2.1756,-0.0992,1.028
25.928,26.27,46.00,1000.10,0.000000,0.000000,0.00,0,0,1.0093,0.1592,-0.1726,1.9008,2.1298,-0.0992,1.036
25.934,26.27,46.00,1000.10,0.000000,0.000000,0.00,0,0,1.0046,0.1609,-0.1682,1.8779,2.2901,0.2672,1.031
25.940,26.27,46.00,1000.10,0.000000,0.000000,0.00,0,0,1.0029,0.1541,-0.1733,1.8168,1.9847,0.2519,1.029
25.946,26.27,46.00,1000.10,0.000000,0.000000,0.00,0,0,1.0015,0.1592,-0.1824,1.8931,2.3664,0.1374,1.030
26.117,26.27,45.99,1000.08,0.000000,0.000000,0.00,0,0,1.0054,0.1489,-0.1831,2.2061,1.8779,-0.4962,1.033
26.123,26.27,45.99,1000.08,0.000000,0.000000,0.00,0,0,1.0012,0.1504,-0.1782,2.1832,2.0076,-0.5573,1.028
26.129,26.27,45.99,1000.08,0.000000,0.000000,0.00,0,0,1.0071,0.1565,-0.1809,2.1374,2.0763,-0.5496,1.035
26.135,26.27,45.99,1000.08,0.000000,0.000000,0.00,0,0,1.0078,0.1545,-0.1753,2.4122,2.0153,-0.6183,1.035
26.141,26.27,45.99,1000.08,0.000000,0.000000,0.00,0,0,1.0112,0.1599,-0.1892,2.5115,2.3359,-0.3053,1.041
26.147,26.27,45.99,1000.08,0.000000,0.000000,0.00,0,0,1.0107,0.1638,-0.1768,2.4351,2.2061,-0.2672,1.039
26.153,26.27,45.99,1000.08,0.000000,0.000000,0.00,0,0,1.0088,0.1655,-0.1819,2.2061,2.2290,-0.1832,1.038
26.159,26.28,45.99,1000.10,0.000000,0.000000,0.00,0,0,1.0063,0.1628,-0.1846,2.1985,2.2672,-0.1145,1.036
26.165,26.28,45.99,1000.10,0.000000,0.000000,0.00,0,0,1.0083,0.1597,-0.1843,2.2214,2.4962,0.0076,1.037
26.171,26.28,45.99,1000.10,0.000000,0.000000,0.00,0,0,1.0093,0.1587,-0.1763,2.1603,2.1756,-0.1374,1.037
26.307,26.26,45.99,1000.08,0.000000,0.000000,0.00,0,0,1.0066,0.1584,-0.1836,2.1374,2.1679,-0.4809,1.035
26.313,26.26,45.99,1000.08,0.000000,0.000000,0.00,0,0,1.0081,0.1602,-0.1770,1.7710,1.9771,-0.4275,1.036
26.319,26.26,45.99,1000.08,0.000000,0.000000,0.00,0,0,1.0029,0.1616,-0.1758,1.9160,1.9924,-0.4962,1.031
26.325,26.26,45.99,1000.08,0.000000,0.000000,0.00,0,0,1.0029,0.1570,-0.1763,1.9466,1.8702,-0.4198,1.030
26.331,26.26,45.99,1000.08,0.000000,0.000000,0.00,0,0,1.0027,0.1565,-0.1765,2.0076,1.9695,-0.5191,1.030
26.336,26.26,45.99,1000.08,0.000000,0.000000,0.00,0,0,1.0083,0.1519,-0.1707,1.7634,2.0687,-0.4656,1.034
26.343,26.26,45.99,1000.08,0.000000,0.000000,0.00,0,0,1.0000,0.1555,-0.1753,1.9084,1.9389,-0.5649,1.027
26.349,26.26,45.99,1000.06,0.000000,0.000000,0.00,0,0,1.0061,0.1609,-0.1707,1.9008,1.8397,-0.2443,1.033
26.355,26.27,45.94,1000.09,0.000000,0.000000,0.00,0,0,1.0037,0.1582,-0.1682,2.0458,2.0534,-0.4885,1.030
26.360,26.27,45.94,1000.09,0.000000,0.000000,0.00,0,0,1.0054,0.1563,-0.1750,1.5496,1.4656,0.0916,1.032
26.636,26.28,45.98,1000.07,0.000000,0.000000,0.00,0,0,1.0071,0.1582,-0.1719,1.6107,1.7710,-0.1603,1.034
26.641,26.28,45.98,1000.10,0.000000,0.000000,0.00,0,0,1.0042,0.1592,-0.1721,1.5954,1.6031,-0.3511,1.031
26.647,26.27,46.00,1000.09,0.000000,0.000000,0.00,0,0,1.0059,0.1653,-0.1763,1.6260,1.7023,-0.3588,1.034
26.653,26.27,46.00,1000.09,0.000000,0.000000,0.00,0,0,1.0024,0.1577,-0.1648,1.5420,1.4275,-0.2977,1.028
26.659,26.27,46.00,1000.09,0.000000,0.000000,0.00,0,0,1.0066,0.1548,-0.1682,1.7405,1.5191,-0.1756,1.032
26.665,26.27,46.00,1000.09,0.000000,0.000000,0.00,0,0,1.0066,0.1567,-0.1699,1.7099,1.0992,-0.2977,1.033
26.671,26.27,46.00,1000.09,0.000000,0.000000,0.00,0,0,1.0061,0.1577,-0.1702,1.5420,1.2748,-0.3359,1.033
26.677,26.27,46.00,1000.09,0.000000,0.000000,0.00,0,0,1.0107,0.1587,-0.1711,1.6641,1.3435,-0.3053,1.037
26.683,26.27,46.00,1000.09,0.000000,0.000000,0.00,0,0,1.0083,0.1538,-0.1802,1.6947,1.2901,-0.4504,1.036
26.689,26.27,46.00,1000.09,0.000000,0.000000,0.00,0,0,1.0039,0.1572,-0.1780,1.7328,1.2519,-0.3893,1.032
26.847,26.28,45.97,1000.09,0.000000,0.000000,0.00,0,0,1.0015,0.1519,-0.1670,1.5802,1.5420,-0.4885,1.027
26.853,26.28,45.97,1000.09,0.000000,0.000000,0.00,0,0,1.0073,0.1528,-0.1711,1.7405,1.6336,-0.3282,1.033
26.859,26.28,45.97,1000.09,0.000000,0.000000,0.00,0,0,1.0039,0.1646,-0.1763,1.5802,1.5878,-0.4504,1.032
26.865,26.28,45.97,1000.09,0.000000,0.000000,0.00,0,0,1.0051,0.1555,-0.1731,1.5954,1.6031,-0.4885,1.032
26.871,26.28,45.97,1000.09,0.000000,0.000000,0.00,0,0,1.0061,0.1541,-0.1719,1.5954,1.6183,-0.5191,1.032
26.877,26.28,45.97,1000.09,0.000000,0.000000,0.00,0,0,1.0027,0.1538,-0.1758,1.5267,1.6947,-0.5420,1.030
26.883,26.28,45.97,1000.09,0.000000,0.000000,0.00,0,0,1.0029,0.1555,-0.1689,1.5573,1.7328,-0.7252,1.029
26.889,26.28,45.97,1000.09,0.000000,0.000000,0.00,0,0,0.9993,0.1565,-0.1719,1.4733,1.6336,-0.5420,1.026
26.895,26.28,45.97,1000.09,0.000000,0.000000,0.00,0,0,1.0034,0.1621,-0.1716,1.6489,1.6565,-0.7634,1.031
26.901,26.28,45.97,1000.09,0.000000,0.000000,0.00,0,0,1.0029,0.1577,-0.1709,1.4427,1.6718,-0.6794,1.030
27.029,26.25,45.98,1000.03,0.000000,0.000000,0.00,0,0,1.0103,0.1677,-0.1838,1.4733,1.4504,-0.0305,1.040
27.035,26.28,45.96,1000.10,0.000000,0.000000,0.00,0,0,1.0081,0.1680,-0.1733,1.5725,1.2366,-0.0763,1.037
27.041,26.28,45.96,1000.10,0.000000,0.000000,0.00,0,0,1.0051,0.1675,-0.1790,1.7328,1.2977,0.0763,1.035
27.047,26.28,45.96,1000.10,0.000000,0.000000,0.00,0,0,1.0134,0.1633,-0.1785,1.4733,1.1985,0.4198,1.042
27.053,26.28,45.96,1000.10,0.000000,0.000000,0.00,0,0,1.0088,0.1611,-0.1846,1.7863,1.3893,0.1832,1.038
27.059,26.28,45.96,1000.10,0.000000,0.000000,0.00,0,0,1.0022,0.1609,-0.1792,1.5878,1.3511,0.2595,1.031
27.065,26.28,45.96,1000.10,0.000000,0.000000,0.00,0,0,1.0095,0.1653,-0.1680,1.7328,1.4885,0.2443,1.037
27.071,26.28,45.96,1000.10,0.000000,0.000000,0.00,0,0,1.0007,0.1631,-0.1741,1.7786,1.2824,0.3893,1.029
27.077,26.28,45.96,1000.10,0.000000,0.000000,0.00,0,0,1.0002,0.1650,-0.1707,1.6336,1.2748,0.4733,1.028
27.083,26.28,45.96,1000.10,0.000000,0.000000,0.00,0,0,1.0029,0.1638,-0.1763,1.5802,1.3740,0.6870,1.031
27.153,26.25,45.97,1000.01,0.000000,0.000000,0.00,0,0,0.9980,0.1479,-0.1780,2.0305,1.6107,-0.1298,1.025
27.159,26.25,45.97,1000.01,0.000000,0.000000,0.00,0,0,1.0115,0.1555,-0.1775,1.8626,1.6489,-0.2748,1.039
27.165,26.25,45.97,1000.01,0.000000,0.000000,0.00,0,0,1.0020,0.1565,-0.1755,1.9542,1.7099,-0.1298,1.029
27.170,26.25,45.97,1000.03,0.000000,0.000000,0.00,0,0,1.0061,0.1667,-0.1743,1.7099,1.0687,-0.6183,1.035
27.245,26.27,45.96,1000.06,0.000000,0.000000,0.00,0,0,1.0095,0.1631,-0.1826,1.7634,0.9008,-0.3282,1.039
27.251,26.27,45.96,1000.06,0.000000,0.000000,0.00,0,0,1.0063,0.1731,-0.1772,1.8397,1.0076,-0.1374,1.036
27.257,26.27,45.96,1000.06,0.000000,0.000000,0.00,0,0,1.0115,0.1721,-0.1799,1.7786,1.1679,0.0687,1.042
27.263,26.27,45.96,1000.06,0.000000,0.000000,0.00,0,0,1.0103,0.1736,-0.1721,1.6565,1.0840,0.1603,1.039
27.269,26.27,45.96,1000.06,0.000000,0.000000,0.00,0,0,1.0134,0.1680,-0.1724,1.4351,1.1298,0.2595,1.042
27.275,26.27,45.96,1000.06,0.000000,0.000000,0.00,0,0,1.0093,0.1726,-0.1648,1.5115,0.9695,0.4733,1.037
27.408,26.26,45.96,1000.05,0.000000,0.000000,0.00,0,0,1.0024,0.1582,-0.1755,1.7634,1.1832,0.1832,1.030
27.414,26.26,45.96,1000.05,0.000000,0.000000,0.00,0,0,1.0042,0.1523,-0.1765,1.6412,1.1450,0.1374,1.031
27.420,26.26,45.96,1000.05,0.000000,0.000000,0.00,0,0,1.0029,0.1572,-0.1821,1.8015,1.3664,0.1527,1.031
27.426,26.29,45.92,1000.09,0.000000,0.000000,0.00,0,0,1.0022,0.1599,-0.1719,1.6031,1.3435,0.2901,1.029
27.432,26.29,45.92,1000.09,0.000000,0.000000,0.00,0,0,1.0066,0.1609,-0.1772,1.7023,1.3588,0.2061,1.035
27.438,26.29,45.92,1000.09,0.000000,0.000000,0.00,0,0,1.0081,0.1577,-0.1770,1.6641,1.3969,0.2137,1.036
27.444,26.29,45.92,1000.09,0.000000,0.000000,0.00,0,0,1.0078,0.1609,-0.1873,1.6794,1.3740,0.2366,1.038
27.450,26.29,45.92,1000.09,0.000000,0.000000,0.00,0,0,1.0129,0.1602,-0.1772,1.4962,1.2824,0.2366,1.041
27.456,26.29,45.92,1000.09,0.000000,0.000000,0.00,0,0,1.0022,0.1523,-0.1824,1.6412,1.4046,0.1756,1.030
27.462,26.29,45.92,1000.09,0.000000,0.000000,0.00,0,0,1.0088,0.1558,-0.1726,1.6412,1.2824,-0.0458,1.035
27.609,26.26,45.96,1000.04,0.000000,0.000000,0.00,0,0,1.0037,0.1567,-0.1731,1.6565,1.4275,0.5115,1.030
27.615,26.26,45.96,1000.04,0.000000,0.000000,0.00,0,0,1.0066,0.1609,-0.1729,1.7023,1.4351,0.5725,1.034
27.621,26.29,46.01,1000.10,0.000000,0.000000,0.00,0,0,1.0022,0.1619,-0.1758,1.6641,1.3206,0.6336,1.030
27.627,26.29,46.01,1000.10,0.000000,0.000000,0.00,0,0,1.0010,0.1563,-0.1714,1.6107,1.2290,0.3893,1.027
27.633,26.29,46.01,1000.10,0.000000,0.000000,0.00,0,0,1.0088,0.1599,-0.1755,1.5267,1.1145,0.2748,1.036
27.639,26.29,46.01,1000.10,0.000000,0.000000,0.00,0,0,1.0078,0.1621,-0.1868,1.4809,1.3130,0.3664,1.038
27.645,26.29,46.01,1000.10,0.000000,0.000000,0.00,0,0,1.0010,0.1589,-0.1799,1.5878,1.1832,0.3588,1.029
27.651,26.29,46.01,1000.10,0.000000,0.000000,0.00,0,0,1.0083,0.1636,-0.1731,1.3130,1.2748,0.4046,1.036
27.657,26.29,46.01,1000.10,0.000000,0.000000,0.00,0,0,1.0024,0.1555,-0.1758,1.3740,1.3740,0.2672,1.030
27.662,26.29,46.01,1000.10,0.000000,0.000000,0.00,0,0,1.0076,0.1631,-0.1865,1.6641,1.4122,0.4198,1.038
27.797,26.26,45.95,1000.02,0.000000,0.000000,0.00,0,0,1.0044,0.1545,-0.1838,1.7405,1.9695,0.7328,1.033
27.803,26.26,45.95,1000.02,0.000000,0.000000,0.00,0,0,1.0046,0.1584,-0.1875,1.8473,2.0916,0.7023,1.034
27.809,26.26,45.95,1000.02,0.000000,0.000000,0.00,0,0,1.0005,0.1538,-0.1809,2.0382,2.1145,0.4427,1.028
27.814,26.26,45.95,1000.10,0.000000,0.000000,0.00,0,0,1.0034,0.1506,-0.1711,1.9847,2.0611,0.3130,1.029
27.820,26.29,45.95,1000.10,0.000000,0.000000,0.00,0,0,0.9983,0.1494,-0.1750,2.0763,1.9313,0.1527,1.024
27.826,26.29,45.95,1000.10,0.000000,0.000000,0.00,0,0,1.0034,0.1489,-0.1733,2.0458,2.1679,-0.2061,1.029
27.832,26.29,45.95,1000.10,0.000000,0.000000,0.00,0,0,0.9966,0.1516,-0.1724,2.1298,2.1756,-0.1908,1.023
27.838,26.29,45.95,1000.10,0.000000,0.000000,0.00,0,0,0.9985,0.1497,-0.1733,2.0305,1.9084,-0.2595,1.024
27.844,26.29,45.95,1000.10,0.000000,0.000000,0.00,0,0,1.0039,0.1423,-0.1731,1.8779,1.8779,-0.4580,1.029
27.850,26.29,45.95,1000.10,0.000000,0.000000,0.00,0,0,1.0015,0.1511,-0.1743,1.9695,1.9237,-0.2824,1.028
27.969,26.26,45.95,1000.03,0.000000,0.000000,0.00,0,0,1.0078,0.1584,-0.1797,1.8626,1.8244,0.2977,1.036
27.975,26.26,45.95,1000.03,0.000000,0.000000,0.00,0,0,1.0002,0.1511,-0.1829,1.6489,1.9084,0.1985,1.028
27.981,26.26,45.95,1000.03,0.000000,0.000000,0.00,0,0,1.0044,0.1536,-0.1807,1.7099,1.8397,0.4122,1.032
27.987,26.26,45.95,1000.03,0.000000,0.000000,0.00,0,0,1.0066,0.1580,-0.1851,1.8473,1.7710,0.5267,1.036
27.993,26.26,45.95,1000.03,0.000000,0.000000,0.00,0,0,1.0068,0.1584,-0.1748,1.9924,1.8092,0.3969,1.034
27.999,26.26,45.95,1000.03,0.000000,0.000000,0.00,0,0,0.9978,0.1553,-0.1804,1.9542,1.8473,0.1679,1.026
28.005,26.26,45.95,1000.03,0.000000,0.000000,0.00,0,0,1.0044,0.1526,-0.1777,1.8779,1.9924,0.4122,1.031
28.011,26.29,45.97,1000.08,0.000000,0.000000,0.00,0,0,1.0037,0.1577,-0.1819,1.9084,2.0458,0.2595,1.032
28.017,26.29,45.97,1000.08,0.000000,0.000000,0.00,0,0,1.0012,0.1499,-0.1777,2.0687,1.8779,0.1527,1.028
28.023,26.29,45.97,1000.08,0.000000,0.000000,0.00,0,0,0.9998,0.1475,-0.1768,2.0000,2.0229,0.1756,1.026
28.156,26.28,45.94,1000.07,0.000000,0.000000,0.00,0,0,0.9990,0.1587,-0.1624,1.9084,2.1069,-0.2977,1.024
28.162,26.28,45.94,1000.07,0.000000,0.000000,0.00,0,0,1.0027,0.1611,-0.1736,2.0076,2.1374,-0.2901,1.030
28.167,26.28,45.94,1000.07,0.000000,0.000000,0.00,0,0,1.0032,0.1558,-0.1660,2.0153,2.0534,-0.5420,1.029
28.173,26.28,45.94,1000.07,0.000000,0.000000,0.00,0,0,1.0044,0.1611,-0.1746,2.2672,2.0840,-0.5802,1.032
28.179,26.28,45.94,1000.07,0.000000,0.000000,0.00,0,0,0.9956,0.1655,-0.1709,1.9771,1.8626,-0.4733,1.024
28.185,26.28,45.94,1000.07,0.000000,0.000000,0.00,0,0,1.0020,0.1621,-0.1775,1.9160,1.9313,-0.5267,1.030
28.191,26.28,45.94,1000.07,0.000000,0.000000,0.00,0,0,1.0056,0.1589,-0.1699,1.9542,1.9313,-0.1832,1.032
28.197,26.28,45.94,1000.07,0.000000,0.000000,0.00,0,0,1.0090,0.1699,-0.1770,1.8321,2.0305,-0.2977,1.038
28.203,26.28,45.94,1000.09,0.000000,0.000000,0.00,0,0,1.0134,0.1633,-0.1794,1.8626,1.8855,-0.2137,1.042
28.209,26.30,45.93,1000.12,0.000000,0.000000,0.00,0,0,1.0078,0.1563,-0.1736,1.9084,1.8550,-0.2137,1.035
28.356,26.29,45.94,1000.09,0.000000,0.000000,0.00,0,0,1.0095,0.1565,-0.1855,2.2137,2.0534,-0.1298,1.038
28.362,26.29,45.94,1000.09,0.000000,0.000000,0.00,0,0,1.0056,0.1628,-0.1692,2.2290,2.0687,-0.1145,1.033
28.367,26.29,45.94,1000.09,0.000000,0.000000,0.00,0,0,1.0061,0.1621,-0.1738,2.2824,2.0305,-0.1298,1.034
28.373,26.29,45.94,1000.09,0.000000,0.000000,0.00,0,0,1.0095,0.1599,-0.1863,2.1374,2.1985,-0.1145,1.039
28.379,26.29,45.94,1000.09,0.000000,0.000000,0.00,0,0,1.0081,0.1685,-0.1846,2.2061,2.0992,-0.0381,1.039
28.385,26.29,45.94,1000.09,0.000000,0.000000,0.00,0,0,1.0081,0.1663,-0.1758,2.1908,2.0840,-0.0458,1.037
28.391,26.29,45.94,1000.09,0.000000,0.000000,0.00,0,0,1.0022,0.1606,-0.1689,2.1221,2.1908,0.2061,1.029
28.397,26.29,45.94,1000.09,0.000000,0.000000,0.00,0,0,1.0117,0.1599,-0.1794,2.1450,2.1832,0.2443,1.040
28.403,26.30,45.86,1000.09,0.000000,0.000000,0.00,0,0,1.0024,0.1567,-0.1729,2.1832,2.2519,0.3511,1.029
28.409,26.30,45.86,1000.09,0.000000,0.000000,0.00,0,0,1.0066,0.1641,-0.1641,2.3740,2.0687,0.0152,1.033
28.566,26.30,45.94,1000.10,0.000000,0.000000,0.00,0,0,1.0015,0.1606,-0.1733,2.2443,1.6412,-1.0916,1.029
28.572,26.30,45.94,1000.10,0.000000,0.000000,0.00,0,0,1.0015,0.1694,-0.1741,2.2137,1.8092,-0.7634,1.031
28.578,26.30,45.94,1000.10,0.000000,0.000000,0.00,0,0,1.0078,0.1689,-0.1714,1.8015,1.5344,-0.6641,1.036
28.584,26.30,45.94,1000.10,0.000000,0.000000,0.00,0,0,1.0046,0.1714,-0.1631,1.8473,1.4656,-0.6870,1.032
28.590,26.30,45.94,1000.10,0.000000,0.000000,0.00,0,0,1.0046,0.1743,-0.1667,1.7634,1.5573,-0.5496,1.033
28.596,26.30,45.94,1000.09,0.000000,0.000000,0.00,0,0,1.0073,0.1697,-0.1736,1.8168,1.4809,-0.4962,1.036
28.602,26.30,45.94,1000.09,0.000000,0.000000,0.00,0,0,1.0083,0.1650,-0.1672,1.5344,1.3969,-0.3130,1.035
28.608,26.30,45.94,1000.09,0.000000,0.000000,0.00,0,0,1.0073,0.1621,-0.1650,1.5954,1.6336,-0.2977,1.034
28.614,26.30,45.94,1000.09,0.000000,0.000000,0.00,0,0,1.0063,0.1709,-0.1667,1.7023,1.4122,-0.3435,1.034
28.620,26.30,45.94,1000.09,0.000000,0.000000,0.00,0,0,1.0088,0.1621,-0.1621,1.6031,1.4198,-0.2519,1.035
28.779,26.28,45.93,1000.04,0.000000,0.000000,0.00,0,0,1.0044,0.1533,-0.1763,1.8244,1.7328,-0.3511,1.031
28.785,26.28,45.93,1000.04,0.000000,0.000000,0.00,0,0,1.0098,0.1470,-0.1838,1.7710,1.7328,0.0305,1.037
28.791,26.28,45.91,1000.09,0.000000,0.000000,0.00,0,0,1.0017,0.1565,-0.1838,2.1374,1.6870,-0.1908,1.030
28.797,26.30,45.91,1000.09,0.000000,0.000000,0.00,0,0,1.0071,0.1506,-0.1824,1.9542,1.8550,-0.2748,1.034
28.803,26.30,45.91,1000.09,0.000000,0.000000,0.00,0,0,1.0005,0.1514,-0.1750,1.9237,2.1221,-0.2901,1.027
28.809,26.30,45.91,1000.09,0.000000,0.000000,0.00,0,0,1.0051,0.1550,-0.1843,1.9924,1.9237,-0.4122,1.034
28.815,26.30,45.91,1000.09,0.000000,0.000000,0.00,0,0,1.0090,0.1570,-0.1821,2.2137,1.8092,-0.5649,1.037
28.821,26.30,45.91,1000.09,0.000000,0.000000,0.00,0,0,1.0054,0.1594,-0.1829,2.1985,1.9389,-0.4427,1.034
28.827,26.30,45.91,1000.09,0.000000,0.000000,0.00,0,0,1.0034,0.1611,-0.1804,2.1450,1.8779,-0.4809,1.032
28.833,26.30,45.91,1000.09,0.000000,0.000000,0.00,0,0,1.0073,0.1577,-0.1851,2.1298,2.1069,-0.3893,1.036
28.962,26.28,45.91,1000.06,0.000000,0.000000,0.00,0,0,1.0068,0.1604,-0.1775,2.0458,1.3969,0.1450,1.035
28.968,26.28,45.91,1000.06,0.000000,0.000000,0.00,0,0,1.0068,0.1616,-0.1807,2.0229,1.5725,0.2443,1.036
28.974,26.28,45.91,1000.06,0.000000,0.000000,0.00,0,0,1.0051,0.1628,-0.1836,2.1450,1.6794,0.1832,1.035
28.980,26.28,45.91,1000.06,0.000000,0.000000,0.00,0,0,1.0020,0.1609,-0.1870,2.1221,1.5038,0.1298,1.032
28.986,26.28,45.90,1000.10,0.000000,0.000000,0.00,0,0,1.0032,0.1599,-0.1709,1.9924,1.6870,-0.0076,1.030
28.992,26.31,45.90,1000.10,0.000000,0.000000,0.00,0,0,0.9976,0.1594,-0.1719,2.1603,1.7710,0.0076,1.025
28.998,26.31,45.90,1000.10,0.000000,0.000000,0.00,0,0,0.9993,0.1589,-0.1689,1.8626,1.9389,0.1908,1.026
29.004,26.31,45.90,1000.10,0.000000,0.000000,0.00,0,0,1.0056,0.1589,-0.1648,1.9008,1.6794,0.1679,1.031
29.010,26.31,45.90,1000.10,0.000000,0.000000,0.00,0,0,1.0044,0.1545,-0.1614,1.7252,1.8626,0.1298,1.029
29.016,26.31,45.90,1000.10,0.000000,0.000000,0.00,0,0,1.0017,0.1577,-0.1724,1.9771,1.8779,0.2290,1.029
29.146,26.27,45.91,1000.04,0.000000,0.000000,0.00,0,0,0.9998,0.1638,-0.1680,1.8321,1.3969,0.1527,1.027
29.152,26.27,45.91,1000.04,0.000000,0.000000,0.00,0,0,1.0059,0.1643,-0.1724,2.0076,1.4733,0.2595,1.034
29.158,26.27,45.91,1000.04,0.000000,0.000000,0.00,0,0,1.0066,0.1621,-0.1697,1.9237,1.4656,0.2214,1.034
29.163,26.27,45.91,1000.04,0.000000,0.000000,0.00,0,0,1.0039,0.1624,-0.1650,1.6565,1.3664,0.1298,1.030
29.169,26.27,45.91,1000.04,0.000000,0.000000,0.00,0,0,1.0090,0.1631,-0.1733,1.6489,1.4580,0.2061,1.037
29.175,26.27,45.91,1000.04,0.000000,0.000000,0.00,0,0,1.0010,0.1570,-0.1572,1.8015,1.1069,0.2824,1.025
29.181,26.27,45.91,1000.11,0.000000,0.000000,0.00,0,0,1.0010,0.1626,-0.1611,1.6718,1.2519,0.3359,1.027
29.187,26.31,45.91,1000.11,0.000000,0.000000,0.00,0,0,1.0020,0.1626,-0.1655,1.5573,1.0534,0.2443,1.028
29.193,26.31,45.91,1000.11,0.000000,0.000000,0.00,0,0,1.0017,0.1560,-0.1689,1.6489,1.0992,0.4427,1.028
29.199,26.31,45.91,1000.11,0.000000,0.000000,0.00,0,0,1.0005,0.1594,-0.1741,1.7863,1.0763,0.0916,1.028
29.346,26.29,45.91,1000.09,0.000000,0.000000,0.00,0,0,1.0034,0.1599,-0.1772,1.4046,0.6870,0.0916,1.031
29.352,26.29,45.91,1000.09,0.000000,0.000000,0.00,0,0,1.0022,0.1616,-0.1885,1.3282,0.7099,-0.0458,1.032
29.357,26.29,45.91,1000.09,0.000000,0.000000,0.00,0,0,1.0020,0.1648,-0.1768,1.2824,0.6718,0.1603,1.031
29.363,26.29,45.91,1000.09,0.000000,0.000000,0.00,0,0,1.0029,0.1609,-0.1802,1.3435,0.7099,0.1298,1.032
29.369,26.29,45.91,1000.09,0.000000,0.000000,0.00,0,0,1.0088,0.1638,-0.1738,1.3359,0.7634,0.1527,1.037
29.375,26.29,45.91,1000.08,0.000000,0.000000,0.00,0,0,1.0090,0.1597,-0.1794,1.4504,0.7557,0.2061,1.037
29.381,26.32,45.92,1000.08,0.000000,0.000000,0.00,0,0,1.0022,0.1572,-0.1836,1.1298,0.8244,0.0687,1.031
29.387,26.32,45.92,1000.08,0.000000,0.000000,0.00,0,0,1.0027,0.1577,-0.1709,1.2748,0.9160,0.0839,1.029
29.393,26.32,45.92,1000.08,0.000000,0.000000,0.00,0,0,1.0061,0.1548,-0.1743,1.3740,0.8473,-0.0076,1.033
29.399,26.32,45.92,1000.08,0.000000,0.000000,0.00,0,0,1.0022,0.1560,-0.1724,1.4046,0.7252,-0.0610,1.029
29.523,26.29,45.90,1000.07,0.000000,0.000000,0.00,0,0,1.0032,0.1584,-0.1807,1.5038,0.7328,-0.0916,1.032
29.529,26.29,45.90,1000.07,0.000000,0.000000,0.00,0,0,1.0046,0.1599,-0.1724,1.5496,0.7863,-0.0381,1.032
29.535,26.29,45.90,1000.07,0.000000,0.000000,0.00,0,0,1.0015,0.1565,-0.1790,1.2137,0.7023,0.0076,1.029
29.541,26.29,45.90,1000.07,0.000000,0.000000,0.00,0,0,1.0005,0.1602,-0.1760,1.3817,0.5573,-0.0458,1.028
29.547,26.29,45.90,1000.07,0.000000,0.000000,0.00,0,0,1.0051,0.1541,-0.1748,1.4046,0.7481,-0.0916,1.032
29.553,26.29,45.90,1000.07,0.000000,0.000000,0.00,0,0,1.0017,0.1565,-0.1733,1.3053,0.5802,-0.2672,1.029
29.559,26.29,45.90,1000.07,0.000000,0.000000,0.00,0,0,0.9980,0.1650,-0.1733,1.3817,0.7252,-0.3664,1.026
29.565,26.29,45.90,1000.07,0.000000,0.000000,0.00,0,0,1.0022,0.1582,-0.1733,1.5573,0.6870,-0.2137,1.029
29.571,26.29,45.88,1000.08,0.000000,0.000000,0.00,0,0,1.0066,0.1589,-0.1785,1.6183,0.7252,-0.0992,1.035
29.577,26.32,45.88,1000.08,0.000000,0.000000,0.00,0,0,1.0046,0.1628,-0.1741,1.5115,0.6718,-0.2290,1.033
29.706,26.32,45.89,1000.08,0.000000,0.000000,0.00,0,0,0.9963,0.1553,-0.1768,1.5573,0.8168,-0.4198,1.024
29.712,26.32,45.89,1000.08,0.000000,0.000000,0.00,0,0,1.0015,0.1526,-0.1775,1.7786,0.7176,-0.8321,1.028
29.718,26.32,45.89,1000.08,0.000000,0.000000,0.00,0,0,0.9980,0.1548,-0.1746,1.8626,0.7023,-0.8092,1.025
29.724,26.32,45.89,1000.08,0.000000,0.000000,0.00,0,0,1.0066,0.1528,-0.1772,1.8092,0.7099,-0.8397,1.033
29.730,26.32,45.89,1000.08,0.000000,0.000000,0.00,0,0,1.0012,0.1594,-0.1794,1.7634,0.6031,-0.7634,1.030
29.736,26.32,45.89,1000.08,0.000000,0.000000,0.00,0,0,1.0107,0.1670,-0.1807,1.6031,0.6718,-0.4733,1.040
29.742,26.32,45.89,1000.08,0.000000,0.000000,0.00,0,0,1.0042,0.1746,-0.1873,1.7023,0.8473,-0.5267,1.036
29.748,26.32,45.89,1000.08,0.000000,0.000000,0.00,0,0,1.0083,0.1729,-0.1907,1.5267,0.8168,-0.2595,1.041
29.754,26.32,45.89,1000.08,0.000000,0.000000,0.00,0,0,1.0022,0.1736,-0.1907,1.5267,1.1069,-0.0916,1.035
29.760,26.32,45.89,1000.08,0.000000,0.000000,0.00,0,0,1.0063,0.1777,-0.1865,1.4885,1.0076,0.1679,1.039
29.886,26.32,45.90,1000.10,0.000000,0.000000,0.00,0,0,1.0112,0.1682,-0.1924,1.6947,1.3588,0.0916,1.043
29.892,26.32,45.90,1000.10,0.000000,0.000000,0.00,0,0,1.0051,0.1667,-0.1880,1.6870,1.5496,0.1450,1.036
29.898,26.32,45.90,1000.10,0.000000,0.000000,0.00,0,0,1.0066,0.1628,-0.1943,1.7481,1.5878,0.4656,1.038
