Time_s,Temperature_C,Humidity_%,Pressure_hPa,Lat,Lng,Alt_m,Fix,Sats,AccelX_g,AccelY_g,AccelZ_g,GyroX_deg_s,GyroY_deg_s,GyroZ_deg_s,TotalAccel
2.662,27.18,45.91,1684.13,0.000000,0.000000,0.00,0,0,1.0146,-0.1243,-0.1199,2.4427,1.4122,-0.0152,1.029
2.669,27.18,45.91,1000.00,0.000000,0.000000,0.00,0,0,1.0112,-0.1235,-0.1133,2.0382,1.4046,0.1832,1.025
2.675,27.18,45.91,1000.00,0.000000,0.000000,0.00,0,0,1.0210,-0.1345,-0.1160,1.9618,1.2366,0.3740,1.036
2.681,27.18,45.91,1000.00,0.000000,0.000000,0.00,0,0,1.0110,-0.1223,-0.1104,1.8015,1.1145,0.5878,1.024
2.687,27.18,45.91,1000.00,0.000000,0.000000,0.00,0,0,1.0129,-0.1318,-0.1187,1.5496,1.1221,0.9466,1.028
2.693,27.18,45.91,1000.00,0.000000,0.000000,0.00,0,0,1.0093,-0.1311,-0.1135,1.0992,0.9008,0.8015,1.024
2.699,27.18,45.91,1000.00,0.000000,0.000000,0.00,0,0,1.0139,-0.1313,-0.1182,1.0840,0.7176,1.0763,1.029
2.705,27.18,45.91,1000.00,0.000000,0.000000,0.00,0,0,1.0127,-0.1284,-0.1230,1.2824,1.1145,0.8931,1.028
2.711,27.18,45.91,1000.00,0.000000,0.000000,0.00,0,0,1.0127,-0.1287,-0.1257,1.4656,0.9160,0.7099,1.029
2.717,27.18,45.91,1000.00,0.000000,0.000000,0.00,0,0,1.0049,-0.1333,-0.1257,1.6718,1.2366,0.7252,1.021
2.777,27.17,45.90,999.99,0.000000,0.000000,0.00,0,0,1.0244,-0.1152,-0.1086,2.4809,1.1145,-1.0305,1.037
2.783,27.17,45.90,999.99,0.000000,0.000000,0.00,0,0,1.0208,-0.1165,-0.1145,2.0916,1.1145,-0.6489,1.034
2.789,27.17,45.90,999.99,0.000000,0.000000,0.00,0,0,1.0012,-0.1289,-0.1194,2.0840,1.7634,0.8168,1.017
2.864,27.19,45.90,999.99,0.000000,0.000000,0.00,0,0,1.0107,-0.1328,-0.1116,2.0916,1.6794,0.9924,1.026
2.870,27.19,45.90,999.99,0.000000,0.000000,0.00,0,0,1.0015,-0.1418,-0.1165,1.4122,0.5038,0.0229,1.018
2.944,27.18,45.90,999.99,0.000000,0.000000,0.00,0,0,0.9919,-0.1492,-0.1233,1.1832,0.7481,-0.2519,1.011
2.950,27.18,45.90,999.99,0.000000,0.000000,0.00,0,0,0.9880,-0.1472,-0.1174,0.9847,0.9084,-0.3053,1.006
2.955,27.18,45.90,999.99,0.000000,0.000000,0.00,0,0,0.9868,-0.1433,-0.1299,0.9695,1.1603,-0.5115,1.006
2.962,27.18,45.90,999.99,0.000000,0.000000,0.00,0,0,0.9980,-0.1379,-0.1292,1.2595,1.4809,-0.6565,1.016
2.968,27.18,45.90,999.99,0.000000,0.000000,0.00,0,0,0.9946,-0.1350,-0.1338,1.6107,1.8015,-0.6107,1.013
3.278,27.19,45.88,1000.01,0.000000,0.000000,0.00,0,0,0.9922,-0.1636,-0.0974,0.5954,7.0611,-0.0534,1.010
3.348,27.19,45.88,1000.01,0.000000,0.000000,0.00,0,0,0.9966,-0.1465,-0.0922,1.6489,5.7405,-6.2977,1.012
3.417,27.19,45.88,1000.00,0.000000,0.000000,0.00,0,0,1.0227,-0.1333,-0.1255,3.3130,9.4885,-1.8397,1.039
3.435,27.18,45.88,1000.00,0.000000,0.000000,0.00,0,0,1.0244,-0.1384,-0.1274,2.7710,11.1985,-0.2443,1.042
3.509,27.18,45.88,1000.00,0.000000,0.000000,0.00,0,0,0.9814,-0.0647,-0.1489,9.0458,-6.2901,-0.6947,0.995
3.565,27.19,45.85,1000.00,0.000000,0.000000,0.00,0,0,0.9915,-0.1501,-0.1353,5.1756,1.5344,12.7634,1.012
3.582,27.19,45.85,1000.00,0.000000,0.000000,0.00,0,0,0.9519,-0.2056,-0.0788,7.1603,3.8550,11.7481,0.977
3.599,27.19,45.85,1000.00,0.000000,0.000000,0.00,0,0,1.0093,-0.1580,-0.0544,5.4046,3.3893,8.0076,1.023
3.695,27.19,45.86,1000.01,0.000000,0.000000,0.00,0,0,0.9963,-0.2026,-0.0639,0.6336,3.4962,0.0992,1.019
3.744,27.20,45.84,1000.04,0.000000,0.000000,0.00,0,0,1.0154,-0.1494,-0.0761,-2.0992,3.3359,-2.6947,1.029
3.880,27.19,45.86,1000.01,0.000000,0.000000,0.00,0,0,1.0046,-0.1370,-0.1106,-2.3588,4.1298,-0.5344,1.020
3.897,27.19,45.86,1000.01,0.000000,0.000000,0.00,0,0,1.0164,-0.1338,-0.1040,-0.5115,4.2443,0.5496,1.030
3.933,27.19,45.89,1000.02,0.000000,0.000000,0.00,0,0,1.0308,-0.1208,-0.0822,1.5420,1.7328,3.6412,1.041
4.033,27.19,45.85,1000.02,0.000000,0.000000,0.00,0,0,0.9761,-0.1699,-0.0913,0.1832,4.1679,-0.0839,0.995
4.136,27.18,45.85,999.99,0.000000,0.000000,0.00,0,0,1.0078,-0.1526,-0.0622,2.5038,-0.4504,0.2824,1.021
4.215,27.19,45.85,999.98,0.000000,0.000000,0.00,0,0,0.9282,-0.2161,-0.1602,2.5420,1.8321,2.0000,0.966
4.311,27.19,45.85,1000.02,0.000000,0.000000,0.00,0,0,1.0864,-0.0935,0.0283,-5.1374,14.7328,-8.0153,1.091
4.317,27.19,45.85,1000.02,0.000000,0.000000,0.00,0,0,1.0979,-0.0515,0.0297,-5.9084,12.4351,-6.0687,1.100
4.323,27.19,45.85,1000.02,0.000000,0.000000,0.00,0,0,1.0798,0.0000,0.0437,-5.4580,7.6260,0.1221,1.081
4.329,27.19,45.85,1000.02,0.000000,0.000000,0.00,0,0,1.0591,-0.1157,0.0065,-0.9389,7.2595,0.4275,1.065
4.428,27.17,45.84,999.98,0.000000,0.000000,0.00,0,0,1.0195,-0.1282,-0.1406,12.0611,3.7405,2.7557,1.037
4.433,27.17,45.84,999.98,0.000000,0.000000,0.00,0,0,1.0315,-0.1333,-0.1140,13.8931,3.6641,3.2061,1.046
4.439,27.17,45.84,999.98,0.000000,0.000000,0.00,0,0,1.0271,-0.1733,-0.0549,12.8702,2.8855,2.4809,1.043
4.445,27.17,45.84,999.98,0.000000,0.000000,0.00,0,0,1.0186,-0.1260,-0.0229,11.9160,1.7710,1.9847,1.027
4.452,27.17,45.84,999.98,0.000000,0.000000,0.00,0,0,1.0251,-0.1492,-0.0127,12.9237,1.7176,2.5267,1.036
4.457,27.17,45.84,999.98,0.000000,0.000000,0.00,0,0,1.0146,-0.1667,-0.0451,11.8321,0.3206,2.5878,1.029
4.463,27.17,45.84,999.98,0.000000,0.000000,0.00,0,0,1.0132,-0.1758,-0.0129,11.5038,-0.1450,1.8473,1.028
4.469,27.17,45.84,999.98,0.000000,0.000000,0.00,0,0,1.0046,-0.1909,-0.0410,9.5267,-0.5344,1.8015,1.023
4.475,27.17,45.84,999.98,0.000000,0.000000,0.00,0,0,0.9897,-0.1807,-0.0483,7.9084,-0.6183,0.3740,1.007
4.481,27.17,45.84,999.98,0.000000,0.000000,0.00,0,0,0.9697,-0.1851,-0.0683,6.7328,-0.1756,-0.1374,0.990
4.605,27.20,45.84,999.98,0.000000,0.000000,0.00,0,0,0.9880,-0.1670,-0.0139,-4.5573,0.5191,-6.5344,1.002
4.611,27.20,45.84,999.98,0.000000,0.000000,0.00,0,0,0.9570,-0.1399,-0.0710,-5.5954,0.0152,-7.3740,0.970
4.617,27.20,45.84,999.98,0.000000,0.000000,0.00,0,0,1.0315,-0.2029,-0.0703,-4.3893,0.9695,-8.1832,1.054
4.623,27.20,45.84,999.98,0.000000,0.000000,0.00,0,0,1.0107,-0.1272,-0.0959,-4.2977,0.6870,-8.3511,1.023
4.629,27.20,45.84,999.98,0.000000,0.000000,0.00,0,0,1.0491,-0.1550,-0.1602,-0.9084,2.2366,-8.6718,1.072
4.635,27.20,45.84,999.98,0.000000,0.000000,0.00,0,0,0.9377,-0.0859,-0.1260,-0.4809,1.7328,-9.2214,0.950
4.641,27.20,45.84,999.98,0.000000,0.000000,0.00,0,0,1.0605,-0.1807,-0.2014,3.0229,3.7252,-8.1832,1.095
4.647,27.20,45.84,999.98,0.000000,0.000000,0.00,0,0,0.9851,-0.0815,-0.1262,1.1985,4.0458,-9.2443,0.997
4.653,27.17,45.83,999.96,0.000000,0.000000,0.00,0,0,1.0273,-0.1313,-0.0598,4.0458,1.8931,-3.7252,1.037
4.728,27.17,45.83,999.96,0.000000,0.000000,0.00,0,0,1.0291,-0.1338,-0.0273,3.7023,0.9160,-3.0076,1.038
4.760,27.17,45.83,999.96,0.000000,0.000000,0.00,0,0,0.9956,-0.1204,-0.0854,1.3817,2.3206,0.1756,1.006
4.766,27.17,45.83,999.96,0.000000,0.000000,0.00,0,0,1.0349,-0.1113,-0.0988,0.3435,2.8473,0.2824,1.046
4.772,27.17,45.83,999.96,0.000000,0.000000,0.00,0,0,0.9915,-0.1230,-0.0959,-0.2977,3.1145,0.2443,1.004
4.778,27.17,45.83,999.96,0.000000,0.000000,0.00,0,0,1.0027,-0.1057,-0.0969,0.4198,4.4275,0.8626,1.013
4.784,27.17,45.83,999.96,0.000000,0.000000,0.00,0,0,0.9932,-0.1228,-0.0979,1.5191,4.5420,0.4809,1.006
4.790,27.20,45.85,1000.03,0.000000,0.000000,0.00,0,0,0.9910,-0.1433,-0.0891,1.8550,4.6412,0.2214,1.005
4.796,27.20,45.85,1000.03,0.000000,0.000000,0.00,0,0,0.9810,-0.1570,-0.0832,2.6336,5.5191,0.2824,0.997
4.802,27.20,45.85,1000.03,0.000000,0.000000,0.00,0,0,0.9834,-0.1384,-0.0761,2.9466,5.3664,-0.7405,0.996
4.808,27.20,45.85,1000.03,0.000000,0.000000,0.00,0,0,0.9971,-0.1416,-0.0656,3.7328,5.2824,-0.8779,1.009
4.814,27.20,45.85,1000.03,0.000000,0.000000,0.00,0,0,0.9983,-0.1311,-0.0715,4.2595,5.2672,-1.0611,1.009
4.955,27.17,45.82,999.96,0.000000,0.000000,0.00,0,0,1.0115,-0.1350,-0.0434,12.3969,-8.3359,9.3053,1.021
4.961,27.17,45.82,999.96,0.000000,0.000000,0.00,0,0,1.0142,-0.1526,-0.0280,13.8626,-9.4122,8.6489,1.026
4.967,27.17,45.82,999.96,0.000000,0.000000,0.00,0,0,0.9968,-0.1501,-0.0407,14.2290,-10.2366,8.3588,1.009
4.973,27.17,45.82,999.96,0.000000,0.000000,0.00,0,0,1.0051,-0.1470,-0.0539,15.2977,-11.4885,7.6489,1.017
4.979,27.17,45.82,999.96,0.000000,0.000000,0.00,0,0,1.0024,-0.1428,-0.0564,16.7786,-12.8092,7.3435,1.014
4.985,27.20,45.82,1000.02,0.000000,0.000000,0.00,0,0,1.0085,-0.1482,-0.0600,17.3282,-13.7405,7.0611,1.021
4.990,27.20,45.82,1000.02,0.000000,0.000000,0.00,0,0,1.0076,-0.1494,-0.0773,17.3893,-14.7710,6.3893,1.022
4.996,27.20,45.82,1000.02,0.000000,0.000000,0.00,0,0,1.0081,-0.1499,-0.0761,17.7328,-15.8321,6.0076,1.022
5.002,27.20,45.82,1000.02,0.000000,0.000000,0.00,0,0,1.0007,-0.1448,-0.0778,17.9389,-16.8931,5.6489,1.014
5.008,27.20,45.82,1000.02,0.000000,0.000000,0.00,0,0,1.0129,-0.1421,-0.1274,23.7863,-23.9313,5.7557,1.031
5.156,27.18,45.81,999.98,0.000000,0.000000,0.00,0,0,1.0320,-0.1296,-0.1545,26.3282,-16.0305,14.0611,1.052
5.162,27.18,45.81,999.98,0.000000,0.000000,0.00,0,0,1.0293,-0.1377,-0.1462,26.4046,-15.3435,15.1756,1.049
5.168,27.18,45.81,999.98,0.000000,0.000000,0.00,0,0,1.0195,-0.1460,-0.1465,25.8473,-14.4962,16.5573,1.040
5.174,27.18,45.81,999.98,0.000000,0.000000,0.00,0,0,1.0142,-0.1555,-0.1484,24.8779,-13.7252,17.0153,1.037
5.180,27.20,45.86,1000.00,0.000000,0.000000,0.00,0,0,1.0107,-0.1675,-0.1572,23.7023,-12.9618,17.7557,1.037
5.186,27.20,45.86,1000.00,0.000000,0.000000,0.00,0,0,1.0073,-0.1724,-0.1504,22.3206,-12.0687,18.3435,1.033
5.192,27.20,45.86,1000.00,0.000000,0.000000,0.00,0,0,1.0020,-0.1768,-0.1558,20.8931,-10.8779,18.6107,1.029
5.198,27.20,45.86,1000.00,0.000000,0.000000,0.00,0,0,0.9902,-0.1829,-0.1794,16.2214,1.6870,14.2748,1.023
5.272,27.20,45.86,1000.00,0.000000,0.000000,0.00,0,0,0.9956,-0.1829,-0.1772,17.1908,2.0000,14.3282,1.028
5.278,27.18,45.82,999.99,0.000000,0.000000,0.00,0,0,0.9888,-0.1858,-0.1580,17.7405,2.0534,14.2137,1.018
5.353,27.18,45.82,999.99,0.000000,0.000000,0.00,0,0,0.9941,-0.2158,-0.1521,10.7634,2.9008,13.8321,1.029
5.359,27.18,45.82,999.99,0.000000,0.000000,0.00,0,0,0.9934,-0.2185,-0.1440,10.6870,2.5115,13.9847,1.027
5.364,27.18,45.82,999.99,0.000000,0.000000,0.00,0,0,1.0059,-0.2119,-0.1248,10.3511,2.0992,13.9084,1.035
5.370,27.18,45.82,999.99,0.000000,0.000000,0.00,0,0,0.9966,-0.2205,-0.1187,10.2748,1.5420,13.9771,1.028
5.377,27.20,45.82,999.99,0.000000,0.000000,0.00,0,0,1.0022,-0.2231,-0.1082,10.0229,0.7939,13.6794,1.032
5.382,27.20,45.82,999.99,0.000000,0.000000,0.00,0,0,0.9990,-0.2214,-0.1123,9.9771,0.2595,13.5802,1.029
5.388,27.20,45.82,999.99,0.000000,0.000000,0.00,0,0,0.9934,-0.2158,-0.1228,10.1603,-0.1679,13.1756,1.024
5.395,27.20,45.82,999.99,0.000000,0.000000,0.00,0,0,0.9458,-0.2712,-0.1047,2.0611,5.8702,7.5802,0.989
5.472,27.19,45.82,999.98,0.000000,0.000000,0.00,0,0,0.9448,-0.2949,-0.1357,1.5649,7.0076,6.6718,0.999
5.478,27.19,45.82,999.98,0.000000,0.000000,0.00,0,0,0.9573,-0.2661,-0.1047,-1.0534,9.1527,-0.0916,0.999
5.632,27.20,45.80,999.99,0.000000,0.000000,0.00,0,0,0.9949,-0.2170,-0.1360,0.6489,5.1069,-2.3893,1.027
5.638,27.20,45.80,999.99,0.000000,0.000000,0.00,0,0,1.0002,-0.2244,-0.1331,1.0305,4.4275,-2.3740,1.034
5.644,27.20,45.80,999.99,0.000000,0.000000,0.00,0,0,1.0042,-0.2251,-0.1238,1.4198,4.3206,-2.1221,1.036
5.650,27.20,45.80,999.99,0.000000,0.000000,0.00,0,0,1.0017,-0.2373,-0.1292,1.7634,3.7786,-2.2290,1.038
5.656,27.20,45.80,999.99,0.000000,0.000000,0.00,0,0,0.9951,-0.2458,-0.1238,2.0153,3.3511,-2.3053,1.032
5.662,27.20,45.80,999.99,0.000000,0.000000,0.00,0,0,0.9919,-0.2446,-0.1279,1.8244,3.4351,-2.6489,1.030
5.668,27.20,45.83,1000.00,0.000000,0.000000,0.00,0,0,1.0024,-0.2366,-0.1216,1.6031,3.0076,-2.5802,1.037
5.675,27.20,45.83,1000.00,0.000000,0.000000,0.00,0,0,0.9988,-0.2417,-0.1155,1.3053,2.8702,-2.8473,1.034
5.681,27.20,45.83,1000.00,0.000000,0.000000,0.00,0,0,0.9976,-0.2458,-0.1245,0.8244,2.6718,-3.3969,1.035
5.686,27.20,45.83,1000.00,0.000000,0.000000,0.00,0,0,0.9985,-0.2373,-0.1162,0.4885,2.7099,-3.3893,1.033
5.798,27.18,45.79,999.97,0.000000,0.000000,0.00,0,0,0.9905,-0.2295,-0.1240,0.7481,0.0458,0.5496,1.024
5.804,27.18,45.79,999.97,0.000000,0.000000,0.00,0,0,0.9841,-0.2312,-0.1345,0.4885,0.1756,0.6336,1.020
5.810,27.18,45.79,999.97,0.000000,0.000000,0.00,0,0,0.9858,-0.2305,-0.1287,0.2214,0.6183,1.0611,1.021
5.816,27.18,45.79,999.97,0.000000,0.000000,0.00,0,0,0.9863,-0.2385,-0.1313,0.2443,1.1298,0.8931,1.023
5.822,27.18,45.79,999.99,0.000000,0.000000,0.00,0,0,0.9993,-0.2268,-0.1318,1.4122,4.6031,-0.4962,1.033
5.896,27.20,45.79,999.99,0.000000,0.000000,0.00,0,0,1.0020,-0.2280,-0.1321,1.6412,4.2901,-0.2137,1.036
5.903,27.20,45.79,999.99,0.000000,0.000000,0.00,0,0,0.9956,-0.2512,-0.1958,-1.0687,5.0687,-0.1527,1.045
5.908,27.20,45.79,999.99,0.000000,0.000000,0.00,0,0,0.9956,-0.2263,-0.1594,-0.8702,5.2137,0.4046,1.033
5.914,27.20,45.79,999.99,0.000000,0.000000,0.00,0,0,0.9797,-0.2351,-0.1411,0.1908,5.4962,0.0381,1.017
5.920,27.20,45.79,999.99,0.000000,0.000000,0.00,0,0,0.9810,-0.2380,-0.1355,0.0000,6.0687,0.0534,1.018
5.988,27.20,45.79,999.99,0.000000,0.000000,0.00,0,0,1.0039,-0.2046,-0.1196,-4.2519,6.3588,2.6107,1.032
5.994,27.20,45.79,999.99,0.000000,0.000000,0.00,0,0,0.9956,-0.2126,-0.1238,-2.6641,6.3053,2.9771,1.026
6.000,27.20,45.79,999.99,0.000000,0.000000,0.00,0,0,0.9917,-0.2336,-0.1167,-2.2519,5.9160,2.8015,1.026
6.006,27.20,45.79,999.99,0.000000,0.000000,0.00,0,0,0.9900,-0.2209,-0.1108,-2.1069,6.0305,3.2519,1.020
6.012,27.20,45.79,999.99,0.000000,0.000000,0.00,0,0,0.9861,-0.2271,-0.0927,-2.0153,5.8931,3.1679,1.016
6.018,27.20,45.79,999.99,0.000000,0.000000,0.00,0,0,0.9788,-0.2361,-0.0793,-2.1298,5.2977,3.1527,1.010
6.024,27.20,45.79,999.99,0.000000,0.000000,0.00,0,0,0.9854,-0.2427,-0.0776,-2.5115,4.6794,3.3130,1.018
6.030,27.20,45.79,999.99,0.000000,0.000000,0.00,0,0,0.9609,-0.2739,-0.1682,-4.1069,4.4351,2.6336,1.013
6.036,27.20,45.79,999.99,0.000000,0.000000,0.00,0,0,0.9746,-0.2595,-0.0883,-4.6641,3.9389,2.7099,1.012
6.042,27.20,45.79,999.99,0.000000,0.000000,0.00,0,0,0.9934,-0.2424,-0.0766,-5.6183,3.3359,2.9466,1.025
6.278,27.21,45.78,1000.02,0.000000,0.000000,0.00,0,0,1.0017,-0.1863,-0.1487,-17.0305,10.2290,-8.3359,1.030
6.284,27.21,45.78,1000.02,0.000000,0.000000,0.00,0,0,0.9956,-0.2092,-0.0773,-18.5496,9.5496,-7.7863,1.020
6.290,27.21,45.78,1000.02,0.000000,0.000000,0.00,0,0,1.0142,-0.1951,-0.1699,-17.0305,9.3359,-7.4351,1.047
6.296,27.21,45.78,1000.02,0.000000,0.000000,0.00,0,0,1.0093,-0.1812,-0.1643,-15.1985,9.6107,-6.7328,1.038
6.302,27.19,45.78,1000.00,0.000000,0.000000,0.00,0,0,1.0032,-0.1865,-0.1472,-7.7710,5.5344,-5.3359,1.031
6.377,27.19,45.78,1000.00,0.000000,0.000000,0.00,0,0,0.9990,-0.1816,-0.1206,-7.3740,5.4656,-4.7557,1.023
6.383,27.19,45.78,1000.01,0.000000,0.000000,0.00,0,0,1.0276,-0.1680,-0.1697,0.3130,-2.2672,0.0152,1.055
6.458,27.19,45.78,1000.01,0.000000,0.000000,0.00,0,0,0.9966,-0.1931,-0.1533,2.7939,-3.3588,-0.7328,1.027
6.464,27.19,45.78,1000.01,0.000000,0.000000,0.00,0,0,1.0076,-0.2144,-0.1213,3.0076,-2.5420,0.5267,1.037
6.470,27.19,45.78,1000.01,0.000000,0.000000,0.00,0,0,0.9985,-0.2036,-0.1528,2.9618,-2.0153,1.0382,1.030
6.546,27.19,45.80,999.99,0.000000,0.000000,0.00,0,0,0.9927,-0.2073,-0.1169,2.6947,-0.1985,2.9542,1.021
6.552,27.18,45.80,999.99,0.000000,0.000000,0.00,0,0,0.9949,-0.2158,-0.1069,2.7176,-0.1603,2.7405,1.024
6.558,27.18,45.80,999.99,0.000000,0.000000,0.00,0,0,0.9905,-0.2078,-0.1104,2.9466,0.2672,2.2366,1.018
6.564,27.18,45.80,999.99,0.000000,0.000000,0.00,0,0,0.9834,-0.2134,-0.0996,2.8092,0.6260,1.6183,1.011
6.570,27.18,45.80,999.99,0.000000,0.000000,0.00,0,0,0.9907,-0.2202,-0.1094,2.9084,0.9466,1.4504,1.021
6.576,27.18,45.80,999.99,0.000000,0.000000,0.00,0,0,0.9888,-0.2109,-0.1016,2.5191,1.6183,1.1985,1.016
6.582,27.18,45.78,999.97,0.000000,0.000000,0.00,0,0,1.0042,-0.2017,-0.1042,0.2748,4.5802,-0.3053,1.029
6.656,27.18,45.78,999.97,0.000000,0.000000,0.00,0,0,0.9990,-0.2029,-0.0939,0.1679,4.4504,-0.3206,1.024
6.662,27.18,45.78,999.97,0.000000,0.000000,0.00,0,0,1.0081,-0.1948,-0.1160,-0.2595,4.3969,-0.3893,1.033
6.668,27.18,45.78,999.97,0.000000,0.000000,0.00,0,0,1.0027,-0.1992,-0.1135,-0.1832,4.3359,-0.6031,1.029
6.784,27.19,45.77,999.99,0.000000,0.000000,0.00,0,0,1.0176,-0.2339,-0.1311,-0.1603,13.7023,9.7023,1.052
6.790,27.19,45.77,1000.02,0.000000,0.000000,0.00,0,0,0.9648,-0.1948,-0.1260,11.0840,2.7634,-5.3588,0.992
6.864,27.21,45.76,999.99,0.000000,0.000000,0.00,0,0,1.0010,-0.1621,-0.0791,4.9847,4.7634,-0.1069,1.017
7.008,27.20,45.76,999.99,0.000000,0.000000,0.00,0,0,1.0195,-0.1685,-0.0481,4.1450,4.6183,0.4046,1.034
7.014,27.20,45.76,999.99,0.000000,0.000000,0.00,0,0,1.0337,-0.2146,-0.0749,3.4198,5.2748,0.5344,1.058
7.020,27.20,45.76,999.99,0.000000,0.000000,0.00,0,0,1.0142,-0.1904,-0.1040,3.7252,5.6412,0.9695,1.037
7.026,27.20,45.76,999.99,0.000000,0.000000,0.00,0,0,0.9922,-0.1824,-0.1284,5.0000,6.7710,1.2748,1.017
7.032,27.20,45.76,999.99,0.000000,0.000000,0.00,0,0,1.0017,-0.1897,-0.1055,5.2366,7.8168,0.9771,1.025
7.038,27.21,45.83,1000.02,0.000000,0.000000,0.00,0,0,1.0039,-0.1995,-0.0856,4.3740,8.4275,1.7405,1.027
7.044,27.21,45.83,1000.02,0.000000,0.000000,0.00,0,0,1.0056,-0.2046,-0.0805,3.6489,9.2672,1.4427,1.029
7.195,27.20,45.77,1000.01,0.000000,0.000000,0.00,0,0,0.9878,-0.2329,-0.0561,13.6336,2.0382,4.0458,1.016
7.201,27.20,45.77,1000.01,0.000000,0.000000,0.00,0,0,0.9946,-0.2195,-0.0590,12.9237,0.8244,4.4046,1.020
7.207,27.20,45.77,1000.01,0.000000,0.000000,0.00,0,0,0.9819,-0.2124,-0.0629,13.3588,-0.5191,4.3588,1.007
7.213,27.20,45.77,1000.01,0.000000,0.000000,0.00,0,0,0.9875,-0.2126,-0.0498,13.7939,-1.8244,4.3893,1.011
7.219,27.20,45.77,1000.01,0.000000,0.000000,0.00,0,0,0.9961,-0.2036,0.0070,14.9237,-2.8473,4.3893,1.017
7.225,27.20,45.77,1000.01,0.000000,0.000000,0.00,0,0,0.9756,-0.2144,-0.0532,14.3130,-3.5649,4.3588,1.000
7.231,27.21,45.77,1000.02,0.000000,0.000000,0.00,0,0,0.9810,-0.1755,-0.0461,15.2824,-4.4046,4.9542,0.998
7.237,27.21,45.77,1000.02,0.000000,0.000000,0.00,0,0,0.9897,-0.1697,-0.1018,17.7405,-4.6260,5.1908,1.009
7.243,27.21,45.77,1000.02,0.000000,0.000000,0.00,0,0,0.9978,-0.1726,-0.1174,21.0458,-4.9160,6.0763,1.019
7.249,27.21,45.77,1000.02,0.000000,0.000000,0.00,0,0,0.9951,-0.1750,-0.1245,24.1221,-4.9466,6.7176,1.018
7.379,27.19,45.76,1000.02,0.000000,0.000000,0.00,0,0,0.9727,-0.2476,-0.0603,-0.5191,-1.7634,1.7939,1.005
7.454,27.21,45.76,1000.02,0.000000,0.000000,0.00,0,0,0.9790,-0.2542,-0.0615,0.2595,-1.3969,1.7252,1.013
7.460,27.21,45.76,1000.02,0.000000,0.000000,0.00,0,0,0.9954,-0.2104,-0.1057,4.1298,-2.7634,-6.4885,1.023
7.534,27.20,45.76,1000.02,0.000000,0.000000,0.00,0,0,1.0002,-0.2100,-0.1052,5.7023,-2.6031,-6.3511,1.027
7.540,27.20,45.76,1000.02,0.000000,0.000000,0.00,0,0,0.9939,-0.2041,-0.1177,7.0534,-2.6336,-5.7481,1.021
7.546,27.20,45.76,1000.02,0.000000,0.000000,0.00,0,0,0.9771,-0.2124,-0.0754,6.9389,-2.3893,-5.2901,1.003
7.552,27.20,45.76,1000.02,0.000000,0.000000,0.00,0,0,0.9766,-0.2209,-0.0598,5.6336,-2.4122,-4.7557,1.003
7.558,27.20,45.76,1000.02,0.000000,0.000000,0.00,0,0,0.9810,-0.2427,-0.0197,4.4427,-2.6260,-4.6870,1.011
7.564,27.20,45.76,1000.02,0.000000,0.000000,0.00,0,0,0.9771,-0.2375,-0.0048,3.4885,-3.3969,-4.3282,1.006
7.569,27.20,45.76,999.99,0.000000,0.000000,0.00,0,0,0.9985,-0.1990,-0.0876,10.5191,-3.9771,3.1908,1.022
7.800,27.21,45.76,1000.02,0.000000,0.000000,0.00,0,0,1.0017,-0.1929,-0.0993,4.3664,0.9008,2.5649,1.025
7.806,27.21,45.76,1000.02,0.000000,0.000000,0.00,0,0,0.9954,-0.1934,-0.0976,5.0534,0.2061,4.8702,1.019
7.812,27.21,45.76,1000.02,0.000000,0.000000,0.00,0,0,0.9946,-0.2212,-0.0773,5.6412,0.0916,5.0534,1.022
7.818,27.21,45.75,1000.05,0.000000,0.000000,0.00,0,0,0.9895,-0.2317,-0.1077,6.5038,0.0839,6.0382,1.022
7.824,27.21,45.75,1000.05,0.000000,0.000000,0.00,0,0,0.9937,-0.2415,-0.1030,6.5344,0.2061,6.1603,1.028
7.830,27.21,45.75,1000.05,0.000000,0.000000,0.00,0,0,1.0029,-0.2339,-0.1064,7.2748,0.3206,6.2061,1.035
7.836,27.21,45.75,1000.05,0.000000,0.000000,0.00,0,0,1.0066,-0.2278,-0.0927,8.0458,0.1298,6.5115,1.036
7.841,27.21,45.75,1000.05,0.000000,0.000000,0.00,0,0,1.0081,-0.2397,-0.0786,8.6565,-0.1985,6.3435,1.039
7.847,27.21,45.75,1000.05,0.000000,0.000000,0.00,0,0,0.9988,-0.2441,-0.1018,8.5878,-0.2977,5.8397,1.033
7.854,27.18,45.76,999.97,0.000000,0.000000,0.00,0,0,1.0186,-0.1855,-0.2498,16.7023,12.1527,0.2595,1.065
8.034,27.21,45.76,1000.03,0.000000,0.000000,0.00,0,0,1.0088,-0.1917,0.0068,-18.5725,16.5649,-10.6641,1.027
8.040,27.21,45.76,1000.02,0.000000,0.000000,0.00,0,0,0.9717,-0.1338,0.0776,-1.8931,12.5802,-3.0992,0.984
8.114,27.20,45.75,1000.01,0.000000,0.000000,0.00,0,0,0.9717,-0.2119,0.0698,-2.3817,11.1069,-2.0763,0.997
8.120,27.20,45.75,1000.01,0.000000,0.000000,0.00,0,0,0.9636,-0.1140,0.1082,-4.9924,9.2672,-0.2214,0.976
8.126,27.20,45.75,1000.01,0.000000,0.000000,0.00,0,0,0.9631,-0.1580,0.0341,-5.4122,7.0229,2.2824,0.977
8.132,27.20,45.75,1000.01,0.000000,0.000000,0.00,0,0,0.9780,-0.2854,-0.0686,-10.2595,15.4580,1.0382,1.021
8.207,27.20,45.80,999.98,0.000000,0.000000,0.00,0,0,0.9968,-0.2788,-0.0344,-8.8092,14.6641,-0.6565,1.036
8.212,27.19,45.80,999.98,0.000000,0.000000,0.00,0,0,1.0059,-0.2666,-0.0524,-7.8321,13.4046,-2.4427,1.042
8.219,27.19,45.80,999.98,0.000000,0.000000,0.00,0,0,0.9937,-0.2666,-0.0217,-6.7634,11.4504,-3.8473,1.029
8.224,27.19,45.80,999.98,0.000000,0.000000,0.00,0,0,0.9907,-0.2827,-0.0617,-4.1145,8.7786,-5.6489,1.032
8.355,27.19,45.76,999.99,0.000000,0.000000,0.00,0,0,0.9504,-0.1646,0.0024,12.4046,-15.5496,-4.3511,0.965
8.361,27.19,45.76,999.99,0.000000,0.000000,0.00,0,0,0.9619,-0.1528,0.0051,10.2748,-15.4580,-3.3969,0.974
8.367,27.19,45.76,999.99,0.000000,0.000000,0.00,0,0,0.9705,-0.1509,0.0004,8.0534,-14.9160,-2.2977,0.982
8.373,27.19,45.76,999.99,0.000000,0.000000,0.00,0,0,0.9812,-0.1531,-0.0051,6.2901,-14.5267,-1.3817,0.993
8.379,27.19,45.76,999.99,0.000000,0.000000,0.00,0,0,0.9600,-0.1443,-0.0021,4.0000,-13.9466,-0.3588,0.971
8.385,27.19,45.76,999.99,0.000000,0.000000,0.00,0,0,0.8987,-0.0385,0.0400,-3.5191,-13.0534,0.4427,0.900
8.391,27.19,45.76,999.99,0.000000,0.000000,0.00,0,0,0.9641,-0.1350,-0.0324,-6.4198,-12.6260,2.5725,0.974
8.397,27.19,45.76,999.99,0.000000,0.000000,0.00,0,0,0.9890,-0.1458,-0.0166,-8.2901,-13.7863,4.9237,1.000
8.403,27.22,45.75,1000.04,0.000000,0.000000,0.00,0,0,1.0032,-0.1565,-0.0156,-9.0000,-14.6947,7.3435,1.015
8.409,27.22,45.75,1000.04,0.000000,0.000000,0.00,0,0,0.9846,-0.1860,-0.0200,-7.9695,-14.8168,8.9313,1.002
8.499,27.22,45.75,1000.02,0.000000,0.000000,0.00,0,0,0.9912,-0.1921,-0.0581,4.6412,-4.7176,-15.1832,1.011
8.573,27.21,45.76,1000.02,0.000000,0.000000,0.00,0,0,0.9995,-0.1917,-0.0498,3.2901,-3.2977,-14.9313,1.019
8.579,27.21,45.76,1000.02,0.000000,0.000000,0.00,0,0,1.0020,-0.1663,-0.0485,1.8397,-2.5115,-14.6870,1.017
8.585,27.21,45.76,1000.02,0.000000,0.000000,0.00,0,0,0.9934,-0.1829,-0.0324,0.2595,-0.7634,-14.3053,1.011
8.591,27.21,45.76,1000.02,0.000000,0.000000,0.00,0,0,0.9963,-0.1892,-0.0583,-1.3511,0.3130,-13.9084,1.016
8.597,27.21,45.78,1000.03,0.000000,0.000000,0.00,0,0,0.9900,-0.1877,-0.0434,-2.2824,1.1756,-13.4580,1.009
8.603,27.21,45.78,1000.03,0.000000,0.000000,0.00,0,0,0.9937,-0.1975,-0.0446,-2.9237,2.4656,-12.9313,1.014
8.609,27.21,45.78,1000.03,0.000000,0.000000,0.00,0,0,0.9775,-0.1780,-0.0346,-2.9542,3.0534,-11.9924,0.994
8.615,27.21,45.78,1000.03,0.000000,0.000000,0.00,0,0,0.9883,-0.1514,-0.0371,-3.5954,3.5267,-11.5802,1.000
8.621,27.21,45.78,1000.03,0.000000,0.000000,0.00,0,0,0.9724,-0.2043,-0.0612,-2.9160,4.2519,-11.3664,0.996
8.768,27.19,45.76,1000.02,0.000000,0.000000,0.00,0,0,1.0251,-0.1816,-0.0400,0.8397,-2.0840,-11.7786,1.042
8.774,27.19,45.76,1000.02,0.000000,0.000000,0.00,0,0,1.0828,-0.1858,0.0041,4.6107,-3.0000,-11.5191,1.099
8.780,27.19,45.76,1000.02,0.000000,0.000000,0.00,0,0,1.0830,-0.1494,0.0068,7.4962,-3.7252,-10.7557,1.093
8.786,27.19,45.76,1000.02,0.000000,0.000000,0.00,0,0,1.0762,-0.1255,-0.0354,8.3282,-3.8855,-9.6565,1.084
8.792,27.19,45.76,1000.02,0.000000,0.000000,0.00,0,0,1.0613,-0.0878,-0.0244,6.6412,-3.8321,-8.7786,1.065
8.798,27.22,45.72,1000.05,0.000000,0.000000,0.00,0,0,1.0410,-0.1382,-0.1074,2.1145,6.9389,0.0229,1.056
8.873,27.22,45.72,1000.05,0.000000,0.000000,0.00,0,0,1.0339,-0.1487,-0.0878,3.5420,7.5954,0.0687,1.048
8.878,27.22,45.72,1000.05,0.000000,0.000000,0.00,0,0,1.0349,-0.1724,-0.1030,4.3588,7.7557,0.0916,1.054
8.884,27.22,45.72,1000.05,0.000000,0.000000,0.00,0,0,1.0247,-0.1584,-0.0900,5.0916,8.1679,-0.4885,1.041
8.890,27.22,45.69,1000.01,0.000000,0.000000,0.00,0,0,1.0310,-0.1235,-0.0588,9.9618,10.5802,-6.8321,1.040
9.100,27.22,45.75,1000.04,0.000000,0.000000,0.00,0,0,1.0203,-0.0900,-0.0319,2.0153,6.1298,-0.5267,1.025
9.106,27.22,45.75,1000.04,0.000000,0.000000,0.00,0,0,1.0361,-0.0983,-0.0349,0.6336,6.9542,-0.3511,1.041
9.112,27.22,45.75,1000.04,0.000000,0.000000,0.00,0,0,1.0417,-0.0888,-0.0197,-1.0229,8.2137,-0.9389,1.046
9.118,27.22,45.75,1000.04,0.000000,0.000000,0.00,0,0,1.0459,-0.0788,-0.0210,-2.9466,9.6031,-1.9313,1.049
9.124,27.20,45.75,1000.00,0.000000,0.000000,0.00,0,0,1.0295,-0.1658,-0.0495,18.1679,7.4046,-3.5267,1.044
9.199,27.20,45.75,1000.00,0.000000,0.000000,0.00,0,0,1.0449,-0.1428,-0.0273,18.3435,6.8168,-3.2519,1.055
9.205,27.20,45.75,1000.00,0.000000,0.000000,0.00,0,0,1.0513,-0.1404,-0.0424,17.6336,6.6107,-3.1298,1.061
9.210,27.20,45.75,1000.00,0.000000,0.000000,0.00,0,0,1.0906,-0.0771,-0.0415,8.6183,12.3893,3.2977,1.094
9.285,27.19,45.77,1000.01,0.000000,0.000000,0.00,0,0,1.0825,-0.0822,-0.0358,8.8702,12.5954,4.0305,1.086
9.291,27.19,45.77,1000.01,0.000000,0.000000,0.00,0,0,1.0801,-0.0871,-0.0363,9.2214,12.9466,5.1527,1.084
9.358,27.19,45.77,999.99,0.000000,0.000000,0.00,0,0,0.9807,-0.1516,0.0671,19.9237,12.4656,43.6031,0.995
9.432,27.21,45.78,1000.01,0.000000,0.000000,0.00,0,0,0.9790,-0.1499,0.0703,20.9313,11.8168,44.9618,0.993
9.438,27.21,45.78,1000.01,0.000000,0.000000,0.00,0,0,0.9771,-0.1450,0.1033,21.3511,11.1145,45.8397,0.993
9.444,27.21,45.78,1000.01,0.000000,0.000000,0.00,0,0,0.9771,-0.1589,0.0666,21.6718,10.5038,46.3053,0.992
9.450,27.21,45.78,1000.01,0.000000,0.000000,0.00,0,0,0.9780,-0.1548,0.0573,20.6183,9.2214,47.1069,0.992
9.456,27.21,45.78,1000.01,0.000000,0.000000,0.00,0,0,0.9751,-0.1497,0.0544,20.1298,8.5954,48.0458,0.988
9.462,27.21,45.78,1000.01,0.000000,0.000000,0.00,0,0,0.9790,-0.1453,0.0727,19.7634,7.5878,48.2214,0.992
9.468,27.21,45.78,1000.01,0.000000,0.000000,0.00,0,0,0.9919,-0.1421,0.0832,18.8855,6.5496,48.7405,1.006
9.474,27.21,45.78,1000.01,0.000000,0.000000,0.00,0,0,0.9885,-0.1409,0.0673,18.0458,5.8779,48.8855,1.001
9.480,27.22,45.81,1000.02,0.000000,0.000000,0.00,0,0,0.9922,-0.1550,0.0612,17.7023,5.0382,49.0763,1.006
9.645,27.21,45.75,1000.01,0.000000,0.000000,0.00,0,0,0.9480,-0.3020,-0.0009,4.8092,8.0305,6.5725,0.995
9.651,27.21,45.75,1000.01,0.000000,0.000000,0.00,0,0,0.9402,-0.3132,0.0083,4.4962,9.7328,4.1985,0.991
9.657,27.21,45.75,1000.01,0.000000,0.000000,0.00,0,0,0.9263,-0.3135,0.0034,4.6718,11.5649,1.7786,0.978
9.663,27.21,45.75,1000.01,0.000000,0.000000,0.00,0,0,0.9221,-0.3264,0.0122,5.2672,13.0687,-0.7481,0.978
9.669,27.21,45.75,1000.01,0.000000,0.000000,0.00,0,0,0.9214,-0.3325,0.0097,6.2061,14.4504,-2.9160,0.980
9.675,27.22,45.82,1000.05,0.000000,0.000000,0.00,0,0,0.9167,-0.3220,0.0036,7.0458,15.6718,-4.7863,0.972
9.681,27.22,45.82,1000.05,0.000000,0.000000,0.00,0,0,0.9063,-0.3337,0.0000,8.2137,16.4809,-6.9924,0.966
9.687,27.22,45.82,1000.05,0.000000,0.000000,0.00,0,0,0.9087,-0.3225,0.0190,8.9618,17.0305,-8.4504,0.964
9.693,27.22,45.82,1000.05,0.000000,0.000000,0.00,0,0,0.9128,-0.3179,0.0310,9.5267,17.4427,-9.9008,0.967
9.699,27.22,45.82,1000.05,0.000000,0.000000,0.00,0,0,0.9089,-0.3228,0.0451,10.0687,17.7252,-10.7939,0.966
9.847,27.19,45.74,999.97,0.000000,0.000000,0.00,0,0,0.9419,-0.2178,0.1003,15.2824,7.3588,-10.4580,0.972
9.853,27.19,45.74,999.97,0.000000,0.000000,0.00,0,0,0.9314,-0.2092,0.0847,14.6260,7.5267,-10.0382,0.958
9.859,27.19,45.74,999.97,0.000000,0.000000,0.00,0,0,0.9331,-0.1943,0.1040,13.6641,7.6718,-9.3435,0.959
9.865,27.19,45.74,999.97,0.000000,0.000000,0.00,0,0,0.9465,-0.1965,0.1021,11.7176,7.7328,-8.8244,0.972
9.871,27.22,45.79,1000.04,0.000000,0.000000,0.00,0,0,0.9609,-0.1709,0.1003,9.8473,7.5954,-8.1908,0.981
9.876,27.22,45.79,1000.04,0.000000,0.000000,0.00,0,0,0.9670,-0.1689,0.0800,7.7863,7.7405,-7.1374,0.985
9.883,27.22,45.79,1000.04,0.000000,0.000000,0.00,0,0,0.9734,-0.1897,0.1057,5.8168,7.6565,-6.2595,0.997
9.889,27.22,45.79,1000.04,0.000000,0.000000,0.00,0,0,0.9705,-0.1853,0.0647,2.0687,8.0534,-5.3969,0.990
9.895,27.22,45.79,1000.04,0.000000,0.000000,0.00,0,0,0.9712,-0.1924,0.0637,-0.0076,7.6412,-4.2214,0.992
9.901,27.22,45.74,999.99,0.000000,0.000000,0.00,0,0,0.9729,-0.2839,0.1292,5.2366,22.1069,7.7405,1.022
10.045,27.19,45.74,999.99,0.000000,0.000000,0.00,0,0,0.9683,-0.2092,0.1531,0.7176,22.9466,-7.7710,1.002
10.051,27.19,45.74,999.99,0.000000,0.000000,0.00,0,0,0.9800,-0.2258,0.1301,-10.2290,20.6947,-6.9924,1.014
10.057,27.19,45.74,999.99,0.000000,0.000000,0.00,0,0,0.9026,-0.1575,0.1423,-2.5878,19.4275,-8.1527,0.927
10.063,27.21,45.77,1000.02,0.000000,0.000000,0.00,0,0,0.9119,-0.1594,0.1653,0.0992,0.5573,-8.5191,0.940
10.138,27.21,45.77,1000.02,0.000000,0.000000,0.00,0,0,0.9053,-0.2092,0.1292,-4.2748,0.3664,-7.5573,0.938
10.144,27.21,45.77,1000.02,0.000000,0.000000,0.00,0,0,0.9402,-0.1333,0.1895,-0.7328,0.8702,-6.1756,0.968
10.150,27.21,45.73,1000.04,0.000000,0.000000,0.00,0,0,0.9622,-0.1936,0.1167,-6.1450,7.2824,4.9313,0.988
10.224,27.22,45.73,1000.04,0.000000,0.000000,0.00,0,0,0.9185,-0.2131,0.1677,-7.4962,7.0687,5.4962,0.958
10.230,27.22,45.73,1000.04,0.000000,0.000000,0.00,0,0,0.9380,-0.2241,0.1682,-5.4122,7.3435,5.9237,0.979
10.236,27.22,45.73,1000.04,0.000000,0.000000,0.00,0,0,0.9287,-0.2312,0.1528,-7.5878,7.2901,5.6565,0.969
10.405,27.22,45.73,1000.04,0.000000,0.000000,0.00,0,0,0.9338,-0.2283,0.1135,3.9924,6.5878,2.2595,0.968
10.411,27.22,45.73,1000.04,0.000000,0.000000,0.00,0,0,0.9387,-0.2246,0.1084,4.1603,6.6718,1.9389,0.971
10.417,27.22,45.73,1000.04,0.000000,0.000000,0.00,0,0,0.9351,-0.2288,0.1101,3.9618,6.8931,1.7939,0.969
10.423,27.22,45.73,1000.04,0.000000,0.000000,0.00,0,0,0.9421,-0.2239,0.1035,4.1069,7.0076,1.6718,0.974
10.429,27.22,45.73,1000.04,0.000000,0.000000,0.00,0,0,0.9421,-0.2253,0.0927,3.5725,7.2977,1.4656,0.973
10.435,27.22,45.73,1000.04,0.000000,0.000000,0.00,0,0,0.9475,-0.2224,0.0981,3.2137,7.3893,1.4962,0.978
10.441,27.22,45.73,1000.04,0.000000,0.000000,0.00,0,0,0.9480,-0.2241,0.0898,2.5725,7.5802,1.4427,0.978
10.447,27.22,45.73,1000.04,0.000000,0.000000,0.00,0,0,0.9448,-0.2227,0.0910,2.2061,7.5344,1.1450,0.975
10.453,27.22,45.73,1000.03,0.000000,0.000000,0.00,0,0,0.9521,-0.2273,0.0925,1.8702,7.9160,1.2214,0.983
10.459,27.22,45.74,1000.03,0.000000,0.000000,0.00,0,0,0.9514,-0.2239,0.1011,1.7939,7.5496,0.8473,0.983
10.606,27.21,45.72,1000.02,0.000000,0.000000,0.00,0,0,0.9641,-0.2571,0.1582,5.0305,4.8626,-5.9924,1.010
10.612,27.21,45.72,1000.02,0.000000,0.000000,0.00,0,0,0.9563,-0.2500,0.1431,4.8626,4.7939,-5.9542,0.999
10.618,27.21,45.72,1000.02,0.000000,0.000000,0.00,0,0,0.9666,-0.2500,0.1548,4.8092,5.0000,-6.1450,1.010
10.624,27.21,45.72,1000.02,0.000000,0.000000,0.00,0,0,0.9578,-0.2419,0.1631,4.7099,5.0382,-6.4198,1.001
10.630,27.21,45.72,1000.02,0.000000,0.000000,0.00,0,0,0.9683,-0.2463,0.1685,4.8779,5.1527,-6.3664,1.013
10.636,27.21,45.72,1000.02,0.000000,0.000000,0.00,0,0,0.9504,-0.2454,0.1558,4.7405,5.2061,-6.3817,0.994
10.642,27.22,45.66,1000.03,0.000000,0.000000,0.00,0,0,0.9626,-0.2361,0.1448,2.4733,6.5115,-3.6870,1.002
10.717,27.22,45.66,1000.03,0.000000,0.000000,0.00,0,0,0.9602,-0.2373,0.1475,2.4198,6.3740,-3.3664,1.000
10.723,27.22,45.66,1000.03,0.000000,0.000000,0.00,0,0,0.9573,-0.2437,0.1584,2.5496,6.2977,-3.1450,1.000
10.729,27.22,45.66,1000.03,0.000000,0.000000,0.00,0,0,0.9517,-0.2495,0.1631,2.8397,6.0076,-3.2595,0.997
10.866,27.22,45.72,1000.01,0.000000,0.000000,0.00,0,0,0.9294,-0.2144,0.1997,14.0382,7.4504,-2.1985,0.975
10.872,27.22,45.72,1000.01,0.000000,0.000000,0.00,0,0,0.9355,-0.2080,0.2039,13.3206,7.8473,-1.8168,0.980
10.877,27.22,45.72,1000.01,0.000000,0.000000,0.00,0,0,0.9299,-0.2109,0.2104,12.9084,8.1832,-1.7405,0.977
10.883,27.22,45.72,1000.01,0.000000,0.000000,0.00,0,0,0.9297,-0.2058,0.2051,12.4351,8.3588,-1.4733,0.974
10.889,27.22,45.72,1000.01,0.000000,0.000000,0.00,0,0,0.9263,-0.2039,0.2168,11.8397,8.4656,-1.2901,0.973
10.895,27.22,45.72,1000.01,0.000000,0.000000,0.00,0,0,0.9290,-0.2058,0.2117,11.6183,8.4504,-1.4962,0.975
10.901,27.22,45.72,1000.01,0.000000,0.000000,0.00,0,0,0.9319,-0.2039,0.2024,11.4275,8.3893,-1.4885,0.975
10.907,27.22,45.72,1000.01,0.000000,0.000000,0.00,0,0,0.9338,-0.2124,0.2134,11.3664,8.4046,-1.7939,0.981
10.913,27.22,45.72,1000.01,0.000000,0.000000,0.00,0,0,0.9329,-0.2095,0.2075,11.4275,8.2901,-1.6870,0.978
10.919,27.22,45.72,1000.01,0.000000,0.000000,0.00,0,0,0.9351,-0.2085,0.2051,11.6107,8.0382,-1.7099,0.980
11.020,27.21,45.76,1000.01,0.000000,0.000000,0.00,0,0,0.9363,-0.1860,0.2048,12.6718,8.7863,-4.3740,0.976
11.026,27.21,45.76,1000.01,0.000000,0.000000,0.00,0,0,0.9404,-0.1816,0.1980,12.2443,8.9389,-4.4885,0.978
11.032,27.21,45.76,1000.01,0.000000,0.000000,0.00,0,0,0.9438,-0.1851,0.1965,11.8015,9.1221,-4.5496,0.982
11.038,27.21,45.76,1000.01,0.000000,0.000000,0.00,0,0,0.9441,-0.1885,0.2141,11.1450,9.3740,-4.5878,0.986
11.044,27.22,45.76,1000.01,0.000000,0.000000,0.00,0,0,0.9460,-0.1895,0.2183,9.9084,6.1985,-6.1374,0.989
11.119,27.22,45.76,1000.00,0.000000,0.000000,0.00,0,0,0.9500,-0.1575,0.2444,7.0840,10.2901,0.2672,0.993
11.194,27.22,45.73,999.99,0.000000,0.000000,0.00,0,0,0.9480,-0.1575,0.2451,6.3282,10.4885,1.0611,0.992
11.200,27.22,45.73,999.99,0.000000,0.000000,0.00,0,0,0.9355,-0.1565,0.2439,5.6183,10.9084,1.4580,0.979
11.206,27.22,45.73,999.99,0.000000,0.000000,0.00,0,0,0.9329,-0.1616,0.2559,4.7481,11.0687,1.9695,0.981
11.212,27.22,45.73,999.99,0.000000,0.000000,0.00,0,0,0.9258,-0.1646,0.2603,4.0840,11.2595,2.4580,0.976
11.343,27.22,45.71,1000.01,0.000000,0.000000,0.00,0,0,0.8884,-0.1990,0.2505,-1.1298,1.6489,2.6336,0.944
11.349,27.22,45.71,1000.01,0.000000,0.000000,0.00,0,0,0.8936,-0.1973,0.2466,-1.3664,1.3206,2.4885,0.948
11.355,27.22,45.71,1000.01,0.000000,0.000000,0.00,0,0,0.8936,-0.1885,0.2605,-1.5649,0.5725,2.2595,0.950
11.360,27.22,45.71,1000.01,0.000000,0.000000,0.00,0,0,0.8967,-0.1929,0.2583,-1.4656,0.1603,2.1221,0.953
11.366,27.22,45.71,1000.01,0.000000,0.000000,0.00,0,0,0.8931,-0.2014,0.2454,-1.3206,-0.3359,2.1527,0.948
11.372,27.22,45.71,1000.01,0.000000,0.000000,0.00,0,0,0.8940,-0.2031,0.2554,-1.0458,-0.7710,1.9618,0.952
11.378,27.22,45.71,1000.01,0.000000,0.000000,0.00,0,0,0.8970,-0.2104,0.2612,-0.6565,-1.4275,1.8092,0.958
11.384,27.22,45.71,1000.01,0.000000,0.000000,0.00,0,0,0.8948,-0.2129,0.2520,-0.1374,-2.0000,1.7023,0.954
11.390,27.22,45.71,1000.01,0.000000,0.000000,0.00,0,0,0.8960,-0.2114,0.2534,0.4580,-2.3511,1.4580,0.955
11.396,27.22,45.71,1000.01,0.000000,0.000000,0.00,0,0,0.8940,-0.2070,0.2456,0.8702,-2.8168,1.4580,0.950
11.526,27.20,45.71,999.98,0.000000,0.000000,0.00,0,0,0.9475,-0.2075,0.2361,7.1832,-3.5038,3.5725,0.998
11.532,27.22,45.72,1000.02,0.000000,0.000000,0.00,0,0,0.9431,-0.1992,0.2415,7.6565,-3.2519,3.3817,0.994
11.537,27.22,45.72,1000.02,0.000000,0.000000,0.00,0,0,0.9451,-0.2063,0.2439,7.6870,-2.6412,3.5496,0.998
11.544,27.22,45.72,1000.02,0.000000,0.000000,0.00,0,0,0.9453,-0.1987,0.2451,7.8626,-2.0229,3.3130,0.997
11.550,27.22,45.72,1000.02,0.000000,0.000000,0.00,0,0,0.9409,-0.1987,0.2415,8.0611,-1.5420,3.3511,0.992
11.556,27.22,45.72,1000.02,0.000000,0.000000,0.00,0,0,0.9373,-0.2000,0.2375,8.3664,-0.6870,3.0611,0.987
11.563,27.22,45.72,1000.02,0.000000,0.000000,0.00,0,0,0.9343,-0.2068,0.2493,8.6107,-0.0610,2.8092,0.989
11.569,27.22,45.71,999.97,0.000000,0.000000,0.00,0,0,0.9333,-0.2053,0.2419,6.4962,6.5115,-0.0534,0.986
11.643,27.20,45.71,999.97,0.000000,0.000000,0.00,0,0,0.9363,-0.2039,0.2427,6.8321,6.7557,-0.5038,0.988
11.649,27.20,45.71,999.97,0.000000,0.000000,0.00,0,0,0.9258,-0.1870,0.2502,4.1603,8.7099,-3.6947,0.977
11.804,27.21,45.71,999.99,0.000000,0.000000,0.00,0,0,0.9021,-0.1836,0.2917,-5.8779,1.2290,-21.9695,0.966
11.810,27.21,45.73,1000.00,0.000000,0.000000,0.00,0,0,0.9258,-0.0986,0.2483,-7.2977,0.3435,-30.6489,0.964
11.883,27.23,45.72,1000.00,0.000000,0.000000,0.00,0,0,0.9292,-0.0991,0.2603,-9.4122,0.9237,-30.8779,0.970
11.890,27.23,45.72,1000.00,0.000000,0.000000,0.00,0,0,0.9343,-0.0964,0.2566,-11.3511,1.5725,-31.0687,0.974
11.896,27.23,45.72,1000.00,0.000000,0.000000,0.00,0,0,0.9412,-0.0959,0.2566,-13.4733,2.1756,-31.0840,0.980
11.902,27.23,45.72,1000.00,0.000000,0.000000,0.00,0,0,0.9353,-0.0993,0.2605,-15.5496,2.6412,-31.3359,0.976
11.908,27.23,45.72,1000.00,0.000000,0.000000,0.00,0,0,0.9419,-0.1035,0.2512,-17.4046,2.9237,-31.2977,0.980
11.914,27.23,45.72,1000.00,0.000000,0.000000,0.00,0,0,0.9385,-0.1055,0.2529,-18.5878,3.5496,-31.6947,0.978
11.920,27.23,45.65,1000.00,0.000000,0.000000,0.00,0,0,0.9487,-0.1086,0.2371,-19.5878,4.0840,-31.8473,0.984
11.925,27.22,45.65,1000.00,0.000000,0.000000,0.00,0,0,0.9521,-0.1162,0.2290,-20.0305,4.4427,-32.3053,0.986
12.014,27.22,45.65,1000.00,0.000000,0.000000,0.00,0,0,0.9756,-0.1160,0.2664,-11.0687,14.9313,-32.9618,1.018
12.020,27.22,45.72,1000.00,0.000000,0.000000,0.00,0,0,0.9854,-0.1155,0.2878,-11.5573,15.6107,-32.3817,1.033
12.026,27.22,45.72,1000.00,0.000000,0.000000,0.00,0,0,0.9910,-0.1167,0.3035,-11.9847,15.8244,-31.8473,1.043
12.032,27.22,45.72,1000.00,0.000000,0.000000,0.00,0,0,1.0532,-0.0847,0.4895,-60.2519,1.4580,-30.2595,1.165
12.107,27.22,45.72,1000.00,0.000000,0.000000,0.00,0,0,1.0583,-0.0976,0.4607,-65.1756,-0.4122,-31.6183,1.158
12.113,27.22,45.72,999.99,0.000000,0.000000,0.00,0,0,1.0115,-0.1553,0.3655,-66.3893,-3.6107,-33.8779,1.087
12.119,27.22,45.69,999.98,0.000000,0.000000,0.00,0,0,1.0583,-0.1545,0.4883,-69.0534,-5.4122,-35.8702,1.176
12.125,27.22,45.69,999.98,0.000000,0.000000,0.00,0,0,1.0886,-0.1201,0.4883,-74.9160,-7.0153,-37.8244,1.199
12.131,27.22,45.69,999.98,0.000000,0.000000,0.00,0,0,1.0757,-0.0949,0.5037,-81.1374,-9.0076,-40.0916,1.192
12.137,27.22,45.69,999.98,0.000000,0.000000,0.00,0,0,1.0164,-0.1216,0.4868,-86.9084,-10.2061,-42.7176,1.133
12.223,27.20,45.71,999.97,0.000000,0.000000,0.00,0,0,0.9536,-0.1697,0.3723,-209.1603,-21.7099,-78.8550,1.038
12.229,27.20,45.71,999.97,0.000000,0.000000,0.00,0,0,0.9324,-0.1787,0.3716,-211.5954,-22.3893,-83.7328,1.019
12.235,27.20,45.71,999.97,0.000000,0.000000,0.00,0,0,0.9246,-0.1748,0.3845,-214.7405,-22.6565,-88.7176,1.016
12.241,27.20,45.71,999.97,0.000000,0.000000,0.00,0,0,0.8965,-0.1543,0.3604,-218.9924,-22.7710,-94.1603,0.978
12.247,27.20,45.71,999.97,0.000000,0.000000,0.00,0,0,0.8591,-0.1384,0.3533,-224.2290,-22.7176,-99.6260,0.939
12.253,27.20,45.71,999.97,0.000000,0.000000,0.00,0,0,0.8496,-0.1138,0.3020,-228.3435,-22.9084,-105.1679,0.909
12.259,27.20,45.71,999.97,0.000000,0.000000,0.00,0,0,0.8816,-0.1099,0.2190,-231.6488,-22.6183,-110.8702,0.915
12.265,27.20,45.71,999.97,0.000000,0.000000,0.00,0,0,0.8987,-0.1206,0.1929,-233.2977,-22.6031,-116.6183,0.927
12.271,27.20,45.71,999.97,0.000000,0.000000,0.00,0,0,0.8992,-0.1399,0.1519,-232.6488,-22.4122,-121.6641,0.923
12.277,27.20,45.71,999.97,0.000000,0.000000,0.00,0,0,0.8875,-0.1658,0.1855,-231.9771,-22.5420,-128.0611,0.922
12.458,27.23,45.70,1000.03,0.000000,0.000000,0.00,0,0,0.8606,0.2478,0.1782,-103.1679,36.3817,-117.7481,0.913
12.464,27.23,45.70,1000.03,0.000000,0.000000,0.00,0,0,0.8594,0.2588,0.1785,-99.7328,36.1298,-112.8397,0.915
12.470,27.23,45.70,1000.03,0.000000,0.000000,0.00,0,0,0.8716,0.2595,0.1826,-95.2137,35.6489,-107.5725,0.928
12.476,27.23,45.70,1000.03,0.000000,0.000000,0.00,0,0,0.8813,0.2637,0.1973,-90.3130,35.5267,-101.8092,0.941
12.482,27.23,45.70,1000.03,0.000000,0.000000,0.00,0,0,0.8777,0.2659,0.2080,-85.8702,35.1756,-96.3664,0.940
12.488,27.23,45.70,1000.03,0.000000,0.000000,0.00,0,0,0.8647,0.2600,0.2234,-80.9237,34.6031,-91.1527,0.930
12.494,27.23,45.70,1000.03,0.000000,0.000000,0.00,0,0,0.8547,0.2397,0.2407,-75.6336,34.0916,-86.1069,0.920
12.500,27.23,45.70,1000.03,0.000000,0.000000,0.00,0,0,0.8406,0.2427,0.2241,-70.3359,33.7710,-81.4885,0.903
12.506,27.23,45.69,1000.03,0.000000,0.000000,0.00,0,0,0.8398,0.2537,0.2239,-65.8779,33.3511,-76.4427,0.905
12.512,27.23,45.69,1000.03,0.000000,0.000000,0.00,0,0,0.8425,0.2546,0.2393,-62.3282,33.0611,-71.5267,0.912
12.624,27.23,45.70,1000.01,0.000000,0.000000,0.00,0,0,0.7151,0.3513,0.3533,21.5038,21.3130,-25.8550,0.872
12.630,27.23,45.70,1000.03,0.000000,0.000000,0.00,0,0,0.7329,0.4304,0.3447,30.0076,6.5725,-44.0000,0.917
12.706,27.23,45.71,1000.03,0.000000,0.000000,0.00,0,0,0.7207,0.4375,0.3374,29.2519,6.8550,-45.7023,0.908
12.712,27.23,45.71,1000.03,0.000000,0.000000,0.00,0,0,0.7068,0.4583,0.3271,28.6489,7.3282,-46.6794,0.904
12.718,27.23,45.71,1000.03,0.000000,0.000000,0.00,0,0,0.7092,0.4805,0.3240,28.1832,8.2214,-48.2443,0.916
12.723,27.23,45.71,1000.03,0.000000,0.000000,0.00,0,0,0.7368,0.4927,0.3076,27.5267,9.4504,-49.2290,0.938
12.729,27.23,45.71,1000.03,0.000000,0.000000,0.00,0,0,0.7681,0.5083,0.3125,25.1832,11.1756,-49.7176,0.973
12.735,27.23,45.71,1000.03,0.000000,0.000000,0.00,0,0,0.7957,0.5178,0.3181,20.8092,12.7176,-50.1985,1.001
12.741,27.23,45.71,1000.03,0.000000,0.000000,0.00,0,0,0.8079,0.5361,0.3394,15.3511,14.6565,-50.2595,1.027
12.747,27.23,45.71,1000.03,0.000000,0.000000,0.00,0,0,0.8159,0.5408,0.3501,8.0076,17.0611,-50.0458,1.040
12.954,27.24,45.71,1000.03,0.000000,0.000000,0.00,0,0,0.5242,0.5603,0.4978,0.2901,59.8779,-12.7023,0.915
12.960,27.24,45.71,1000.03,0.000000,0.000000,0.00,0,0,0.5283,0.5754,0.5193,2.8168,57.3053,-9.4046,0.938
12.966,27.24,45.71,1000.03,0.000000,0.000000,0.00,0,0,0.5129,0.5786,0.5105,5.2443,54.3817,-5.7023,0.927
12.972,27.23,45.73,1000.04,0.000000,0.000000,0.00,0,0,0.6309,0.4353,0.4573,45.5115,-26.2137,19.0611,0.893
13.114,27.23,45.73,1000.04,0.000000,0.000000,0.00,0,0,0.5979,0.4758,0.5005,46.2137,-24.1679,19.9237,0.913
13.120,27.23,45.73,1000.00,0.000000,0.000000,0.00,0,0,0.6604,0.5530,0.4531,45.0076,-1.4809,21.5725,0.973
13.195,27.22,45.73,1000.00,0.000000,0.000000,0.00,0,0,0.6436,0.6042,0.5015,45.6412,-1.9542,20.5267,1.015
13.201,27.22,45.73,1000.00,0.000000,0.000000,0.00,0,0,0.6301,0.6392,0.5305,43.8702,-2.5267,20.3511,1.043
13.207,27.22,45.73,1000.00,0.000000,0.000000,0.00,0,0,0.6299,0.6602,0.5310,40.6794,-2.9160,19.5420,1.056
13.213,27.22,45.73,1000.00,0.000000,0.000000,0.00,0,0,0.6387,0.6643,0.5227,36.5954,-3.2748,19.1679,1.059
13.292,27.21,45.76,999.99,0.000000,0.000000,0.00,0,0,0.6670,0.5369,0.4153,1.9008,3.6565,-9.4733,0.952
13.298,27.21,45.76,999.99,0.000000,0.000000,0.00,0,0,0.6157,0.5339,0.5012,0.5191,3.4198,-9.3893,0.957
13.304,27.21,45.76,999.99,0.000000,0.000000,0.00,0,0,0.5825,0.5796,0.4844,0.7099,3.4733,-9.2595,0.954
13.310,27.21,45.76,999.99,0.000000,0.000000,0.00,0,0,0.5735,0.5317,0.5391,0.1069,2.9618,-8.6107,0.950
13.316,27.21,45.76,999.99,0.000000,0.000000,0.00,0,0,0.5527,0.5566,0.4832,-0.2977,3.0076,-7.9618,0.921
13.322,27.21,45.78,999.99,0.000000,0.000000,0.00,0,0,0.6204,0.5425,0.4722,16.9084,-2.3588,10.4504,0.950
13.397,27.21,45.78,999.99,0.000000,0.000000,0.00,0,0,0.6140,0.5291,0.4373,15.3282,-2.4122,11.8702,0.921
13.403,27.21,45.78,999.99,0.000000,0.000000,0.00,0,0,0.6602,0.5173,0.3677,0.8931,7.5267,-1.6412,0.916
13.478,27.21,45.78,999.99,0.000000,0.000000,0.00,0,0,0.6443,0.5278,0.4851,-0.2443,6.7710,1.2290,0.964
13.484,27.22,45.80,1000.02,0.000000,0.000000,0.00,0,0,0.6150,0.5247,0.4038,1.6794,6.3817,2.9771,0.904
13.678,27.24,45.85,1000.00,0.000000,0.000000,0.00,0,0,0.6277,0.6292,0.4365,5.8931,1.3588,-2.9771,0.990
13.684,27.24,45.85,1000.00,0.000000,0.000000,0.00,0,0,0.6184,0.4685,0.4150,4.3511,2.4427,-2.2748,0.880
13.690,27.24,45.85,1000.00,0.000000,0.000000,0.00,0,0,0.6411,0.5342,0.4077,6.1603,1.0076,-0.3282,0.929
13.696,27.24,45.85,1000.00,0.000000,0.000000,0.00,0,0,0.6384,0.5210,0.4512,7.3053,0.4046,1.4427,0.939
13.702,27.24,45.85,1000.00,0.000000,0.000000,0.00,0,0,0.6377,0.5256,0.4153,-11.3053,2.3664,2.9847,0.925
13.777,27.22,45.86,999.99,0.000000,0.000000,0.00,0,0,0.6055,0.5522,0.4458,-10.2290,1.7328,4.3740,0.933
13.783,27.22,45.86,999.99,0.000000,0.000000,0.00,0,0,0.6077,0.6045,0.4631,-11.0382,1.8473,2.5115,0.974
13.789,27.22,45.86,999.99,0.000000,0.000000,0.00,0,0,0.6331,0.4924,0.4397,-11.1527,2.2977,1.5878,0.915
13.795,27.22,45.86,999.99,0.000000,0.000000,0.00,0,0,0.6375,0.4946,0.4238,-10.1832,1.0000,2.1527,0.911
13.801,27.22,45.86,999.99,0.000000,0.000000,0.00,0,0,0.6338,0.5076,0.4287,-7.6641,0.1374,2.1298,0.918
13.891,27.21,45.87,999.98,0.000000,0.000000,0.00,0,0,0.6575,0.5640,0.4211,5.8855,-1.1832,3.2748,0.963
13.897,27.21,45.87,999.98,0.000000,0.000000,0.00,0,0,0.6526,0.5571,0.4094,6.4962,-1.0458,4.0229,0.951
13.903,27.21,45.87,999.98,0.000000,0.000000,0.00,0,0,0.6355,0.5935,0.3970,8.1985,-1.0687,4.5191,0.956
13.909,27.21,45.87,999.98,0.000000,0.000000,0.00,0,0,0.6426,0.5999,0.4287,9.3588,-1.3130,4.9084,0.978
13.915,27.21,45.87,999.98,0.000000,0.000000,0.00,0,0,0.6548,0.5605,0.4053,9.1527,-1.0916,5.7252,0.952
13.921,27.21,45.87,999.98,0.000000,0.000000,0.00,0,0,0.6543,0.5867,0.4163,10.0305,-1.6031,6.4046,0.972
13.927,27.21,45.87,999.98,0.000000,0.000000,0.00,0,0,0.6497,0.6323,0.4175,10.5954,-1.5802,7.0611,0.998
13.933,27.22,45.89,999.98,0.000000,0.000000,0.00,0,0,0.6250,0.5061,0.3894,-4.0687,-7.8550,17.7710,0.894
14.008,27.22,45.89,999.98,0.000000,0.000000,0.00,0,0,0.6235,0.4878,0.3877,2.3817,-8.9771,17.2901,0.882
14.014,27.22,45.89,999.98,0.000000,0.000000,0.00,0,0,0.6226,0.4841,0.4033,8.3664,-9.6641,16.5496,0.886
14.146,27.23,45.91,1000.00,0.000000,0.000000,0.00,0,0,0.7493,0.5942,0.4087,-10.5496,-7.9313,32.9466,1.040
14.152,27.23,45.91,1000.00,0.000000,0.000000,0.00,0,0,0.7603,0.5691,0.4260,-13.2061,-7.9313,33.5725,1.041
14.158,27.23,45.91,1000.00,0.000000,0.000000,0.00,0,0,0.7649,0.5781,0.4158,-15.4733,-7.5344,33.3206,1.045
14.164,27.23,45.91,1000.00,0.000000,0.000000,0.00,0,0,0.7495,0.5505,0.4148,-15.8550,-7.4275,33.2748,1.018
14.170,27.24,45.94,1000.02,0.000000,0.000000,0.00,0,0,0.7554,0.5496,0.4067,-15.9542,-7.3206,32.5267,1.019
14.176,27.24,45.94,1000.02,0.000000,0.000000,0.00,0,0,0.7502,0.5220,0.4124,-14.4580,-7.0305,31.8473,1.003
14.182,27.24,45.94,1000.02,0.000000,0.000000,0.00,0,0,0.7537,0.5144,0.4009,-13.1374,-6.7939,30.8168,0.997
14.188,27.24,45.94,1000.02,0.000000,0.000000,0.00,0,0,0.7561,0.5093,0.4031,-11.0916,-6.1679,29.8626,0.997
14.194,27.24,45.94,1000.02,0.000000,0.000000,0.00,0,0,0.7490,0.5073,0.3882,-9.2290,-5.7863,28.7328,0.984
14.200,27.24,45.94,1000.02,0.000000,0.000000,0.00,0,0,0.7576,0.5125,0.3997,-7.3359,-4.8779,28.3053,0.998
14.335,27.21,45.95,999.99,0.000000,0.000000,0.00,0,0,0.7625,0.4109,0.4114,0.7939,-2.1603,40.0458,0.959
14.341,27.21,45.95,999.99,0.000000,0.000000,0.00,0,0,0.7786,0.4712,0.3052,1.3206,-3.3359,42.2595,0.960
14.347,27.21,45.95,999.99,0.000000,0.000000,0.00,0,0,0.7617,0.3784,0.3831,-1.0992,-4.4122,43.3817,0.933
14.353,27.21,45.95,999.99,0.000000,0.000000,0.00,0,0,0.7798,0.4280,0.3171,-1.0382,-5.7252,44.8702,0.944
14.359,27.21,45.95,999.99,0.000000,0.000000,0.00,0,0,0.7537,0.3496,0.3789,-3.2672,-7.0840,45.5191,0.913
14.365,27.24,45.90,1000.04,0.000000,0.000000,0.00,0,0,0.7664,0.3899,0.3140,-3.0382,-8.7176,46.0687,0.915
14.371,27.24,45.90,1000.04,0.000000,0.000000,0.00,0,0,0.7520,0.3157,0.3730,-3.7557,-9.9160,46.7710,0.897
14.377,27.24,45.90,1000.04,0.000000,0.000000,0.00,0,0,0.7566,0.3608,0.3342,-2.3817,-11.2137,47.7405,0.902
14.383,27.24,45.90,1000.04,0.000000,0.000000,0.00,0,0,0.7622,0.2922,0.3879,-2.0076,-12.1298,47.6870,0.904
14.389,27.24,45.90,1000.04,0.000000,0.000000,0.00,0,0,0.7712,0.3230,0.3655,1.0992,-13.5038,48.7099,0.913
14.439,27.24,45.90,1000.04,0.000000,0.000000,0.00,0,0,0.7737,0.2385,0.4260,23.6336,-16.6183,57.6870,0.915
14.445,27.24,45.90,1000.04,0.000000,0.000000,0.00,0,0,0.7874,0.2451,0.4341,22.5649,-16.0076,58.0382,0.932
14.451,27.21,45.99,999.97,0.000000,0.000000,0.00,0,0,0.8721,-0.1631,0.4363,10.1374,-22.6794,-1.6107,0.989
14.526,27.21,45.99,999.97,0.000000,0.000000,0.00,0,0,0.8455,0.4653,0.3066,18.0305,-33.5649,25.0763,1.013
14.532,27.21,45.99,999.97,0.000000,0.000000,0.00,0,0,0.7610,0.1851,0.4587,8.3206,-24.6947,20.0458,0.908
14.538,27.21,45.99,999.97,0.000000,0.000000,0.00,0,0,0.8252,0.3625,0.5327,16.8092,-27.2061,26.6260,1.047
14.544,27.21,45.99,999.97,0.000000,0.000000,0.00,0,0,0.8359,0.2627,0.4470,11.8931,-22.7405,24.4198,0.984
14.550,27.21,45.99,999.97,0.000000,0.000000,0.00,0,0,0.8293,0.2546,0.4807,22.9313,-23.7634,29.5267,0.992
14.557,27.21,46.01,1000.02,0.000000,0.000000,0.00,0,0,0.8525,0.2573,0.3074,20.3969,-21.3740,30.2443,0.942
14.563,27.24,46.01,1000.02,0.000000,0.000000,0.00,0,0,0.8281,0.2917,0.4595,31.5038,-20.7405,35.4733,0.991
14.623,27.24,46.01,1000.02,0.000000,0.000000,0.00,0,0,0.8020,0.2927,0.2603,25.7481,-22.0229,40.4427,0.893
14.629,27.24,46.01,1000.02,0.000000,0.000000,0.00,0,0,0.8242,0.4822,0.2969,29.7710,-25.1298,34.8015,1.000
14.634,27.24,46.01,1000.02,0.000000,0.000000,0.00,0,0,0.8479,0.1123,0.1731,25.7023,-25.4962,34.4809,0.873
14.641,27.24,46.01,1000.02,0.000000,0.000000,0.00,0,0,0.8972,0.3081,0.3513,21.0382,-29.5802,41.1298,1.012
14.646,27.24,46.01,1000.02,0.000000,0.000000,0.00,0,0,0.9023,0.2549,0.1746,28.6870,-29.6718,40.8702,0.954
14.653,27.24,46.01,1000.02,0.000000,0.000000,0.00,0,0,0.8501,0.2937,0.1909,34.3588,-35.1985,38.6031,0.919
14.659,27.23,45.97,1000.00,0.000000,0.000000,0.00,0,0,0.9487,0.2632,0.2378,32.2519,-35.4351,42.4122,1.013
14.665,27.23,45.97,1000.00,0.000000,0.000000,0.00,0,0,0.9526,0.3071,0.2412,30.6031,-37.9771,41.9695,1.030
14.670,27.23,45.97,1000.00,0.000000,0.000000,0.00,0,0,0.9688,0.3257,0.2275,33.1145,-39.7634,43.3206,1.047
14.677,27.23,45.97,1000.00,0.000000,0.000000,0.00,0,0,0.9585,0.2793,0.1931,30.6412,-40.0611,43.1908,1.017
14.805,27.22,46.00,999.99,0.000000,0.000000,0.00,0,0,0.9082,0.1116,0.2207,1.5878,-21.6336,37.2290,0.941
14.811,27.22,46.00,999.99,0.000000,0.000000,0.00,0,0,0.9380,0.1985,0.1477,3.4656,-18.9847,39.9771,0.970
14.817,27.22,46.00,999.99,0.000000,0.000000,0.00,0,0,0.9001,0.1177,0.1885,2.3969,-14.8931,40.9313,0.927
14.824,27.25,45.99,1000.01,0.000000,0.000000,0.00,0,0,0.9541,0.0266,0.0813,11.1145,-10.9695,28.6947,0.958
14.898,27.25,45.99,1000.01,0.000000,0.000000,0.00,0,0,0.9570,0.0554,0.1331,12.9008,-12.1603,27.1603,0.968
14.904,27.25,45.99,1000.01,0.000000,0.000000,0.00,0,0,0.9573,0.0495,0.1101,14.0000,-13.1374,26.3282,0.965
14.910,27.25,45.99,1000.01,0.000000,0.000000,0.00,0,0,0.9614,0.0761,0.1528,13.3130,-13.7863,25.6183,0.976
14.916,27.25,45.99,1000.01,0.000000,0.000000,0.00,0,0,0.9651,0.0808,0.1497,13.2748,-14.6718,25.2290,0.980
14.922,27.25,45.99,1000.01,0.000000,0.000000,0.00,0,0,0.9609,0.0825,0.1570,11.9542,-15.1069,24.6107,0.977
14.928,27.25,45.99,1000.01,0.000000,0.000000,0.00,0,0,0.9646,0.0886,0.1533,10.5115,-15.5191,24.5344,0.981
15.020,27.25,46.05,999.99,0.000000,0.000000,0.00,0,0,1.0188,-0.0485,0.1091,17.3664,-5.6031,20.2519,1.026
15.093,27.25,46.05,999.99,0.000000,0.000000,0.00,0,0,1.0234,-0.0795,0.0781,23.1069,-5.1450,19.1527,1.029
15.099,27.25,46.05,999.99,0.000000,0.000000,0.00,0,0,1.0232,-0.0722,0.0869,29.0840,-4.8321,17.7481,1.029
15.105,27.25,46.05,999.99,0.000000,0.000000,0.00,0,0,1.0374,-0.0856,0.0568,35.0305,-3.9466,16.6412,1.042
15.111,27.25,46.05,999.99,0.000000,0.000000,0.00,0,0,1.0544,-0.0869,0.0739,40.1679,-2.8702,15.9466,1.061
15.117,27.25,46.05,999.99,0.000000,0.000000,0.00,0,0,1.0667,-0.0822,0.0610,44.6870,-1.4504,15.1679,1.072
15.124,27.25,46.08,1000.02,0.000000,0.000000,0.00,0,0,1.0193,0.0466,0.1582,50.8550,31.2061,-2.3664,1.033
15.198,27.25,46.08,1000.02,0.000000,0.000000,0.00,0,0,1.0037,0.0534,0.1807,47.5038,32.8931,-3.0305,1.021
15.204,27.25,46.08,1000.02,0.000000,0.000000,0.00,0,0,0.9944,0.0493,0.1411,40.0611,34.0992,-3.3053,1.006
15.210,27.25,46.08,1000.02,0.000000,0.000000,0.00,0,0,0.9778,0.0815,0.2253,34.0840,35.3740,-3.5038,1.007
15.345,27.25,46.08,1000.01,0.000000,0.000000,0.00,0,0,0.8877,0.1182,0.1011,20.5725,48.4809,-17.6794,0.901
15.351,27.25,46.08,1000.01,0.000000,0.000000,0.00,0,0,0.8831,0.1321,0.1128,25.0153,48.6107,-16.4809,0.900
15.357,27.25,46.08,1000.01,0.000000,0.000000,0.00,0,0,0.8728,0.1230,0.1082,28.1450,49.1908,-16.1221,0.888
15.363,27.25,46.08,1000.01,0.000000,0.000000,0.00,0,0,0.8638,0.1497,0.0966,30.7099,49.4733,-15.2214,0.882
15.369,27.25,46.08,1000.01,0.000000,0.000000,0.00,0,0,0.8640,0.1841,0.1196,32.4275,50.3130,-14.0458,0.891
15.375,27.25,46.08,1000.01,0.000000,0.000000,0.00,0,0,0.8623,0.1982,0.1089,34.2748,50.7328,-12.8702,0.891
15.381,27.25,46.08,1000.01,0.000000,0.000000,0.00,0,0,0.8477,0.2180,0.0898,34.7786,51.8626,-11.8855,0.880
15.387,27.25,46.08,1000.01,0.000000,0.000000,0.00,0,0,0.8484,0.2527,0.1023,34.9084,52.6947,-9.1603,0.891
15.393,27.25,46.08,1000.01,0.000000,0.000000,0.00,0,0,0.8396,0.2993,0.0966,32.0840,54.7099,-7.3206,0.897
15.399,27.25,46.08,1000.01,0.000000,0.000000,0.00,0,0,0.8535,0.2849,0.0749,29.1374,56.8168,-4.9313,0.903
15.470,27.22,46.11,1000.00,0.000000,0.000000,0.00,0,0,0.7944,0.2754,0.4214,-1.1679,93.8092,43.3817,0.940
15.543,27.25,46.10,1000.00,0.000000,0.000000,0.00,0,0,0.8032,0.2439,0.4600,-1.8779,98.1908,44.0611,0.957
15.549,27.25,46.10,1000.00,0.000000,0.000000,0.00,0,0,0.7930,0.2300,0.5234,-0.9771,102.3817,45.9771,0.978
15.555,27.25,46.10,1000.00,0.000000,0.000000,0.00,0,0,0.8071,0.1951,0.5488,0.6947,106.7557,45.5115,0.995
15.561,27.25,46.10,1000.00,0.000000,0.000000,0.00,0,0,0.8220,0.1880,0.5288,3.9771,111.5267,45.7405,0.995
15.567,27.25,46.10,1000.00,0.000000,0.000000,0.00,0,0,0.8762,0.1882,0.4812,10.2443,116.1527,45.2214,1.017
15.573,27.25,46.10,1000.00,0.000000,0.000000,0.00,0,0,0.8755,0.1392,0.5190,15.9160,118.9771,44.2672,1.027
15.579,27.25,46.10,1000.00,0.000000,0.000000,0.00,0,0,0.8962,0.1619,0.5137,20.3893,123.1527,43.6260,1.046
15.585,27.25,46.10,1000.00,0.000000,0.000000,0.00,0,0,0.9053,0.1401,0.5220,26.6794,126.3053,41.6870,1.054
15.591,27.25,46.10,1000.00,0.000000,0.000000,0.00,0,0,0.9133,0.1721,0.4980,31.2137,129.6412,40.8931,1.054
15.708,27.23,46.11,999.97,0.000000,0.000000,0.00,0,0,0.6367,-0.0559,0.7361,55.7557,101.5802,2.9084,0.975
15.714,27.23,46.11,999.97,0.000000,0.000000,0.00,0,0,0.6218,-0.0095,0.7361,52.0611,98.8702,2.1603,0.964
15.720,27.23,46.11,999.97,0.000000,0.000000,0.00,0,0,0.5896,0.0024,0.7412,47.2672,96.7099,1.1145,0.947
15.726,27.23,46.11,999.97,0.000000,0.000000,0.00,0,0,0.5688,0.0131,0.7751,42.0992,94.6870,0.4122,0.962
15.732,27.25,46.12,1000.03,0.000000,0.000000,0.00,0,0,0.5332,0.0148,0.8008,37.2824,92.9542,-0.5649,0.962
15.738,27.25,46.12,1000.03,0.000000,0.000000,0.00,0,0,0.5029,0.0073,0.8074,32.9847,90.9695,-1.5802,0.951
15.744,27.25,46.12,1000.03,0.000000,0.000000,0.00,0,0,0.4832,0.0046,0.8103,29.9008,88.9389,-2.7176,0.943
15.750,27.25,46.12,1000.03,0.000000,0.000000,0.00,0,0,0.4795,-0.0031,0.7856,28.1603,86.7176,-3.8168,0.920
15.755,27.25,46.12,1000.03,0.000000,0.000000,0.00,0,0,0.5078,-0.0097,0.7744,26.4198,84.1908,-4.7328,0.926
15.761,27.25,46.11,1000.00,0.000000,0.000000,0.00,0,0,0.4172,-0.0424,0.8733,27.5573,37.7328,-13.5878,0.969
15.900,27.22,46.11,1000.02,0.000000,0.000000,0.00,0,0,0.4324,0.0266,0.9233,-5.7557,11.5496,-3.0153,1.020
15.975,27.25,46.10,1000.02,0.000000,0.000000,0.00,0,0,0.4216,0.0385,0.9165,-6.8244,13.6870,-0.8473,1.010
15.981,27.25,46.10,1000.02,0.000000,0.000000,0.00,0,0,0.4207,0.0312,0.9063,-7.7023,15.4885,1.3511,1.000
15.986,27.25,46.10,1000.02,0.000000,0.000000,0.00,0,0,0.4109,0.0280,0.9023,-8.0305,17.0382,3.0458,0.992
15.992,27.25,46.10,1000.02,0.000000,0.000000,0.00,0,0,0.4033,0.0314,0.8933,-7.7176,17.9924,4.7405,0.981
15.998,27.25,46.10,1000.02,0.000000,0.000000,0.00,0,0,0.4038,0.0210,0.8940,-7.0229,18.8015,5.9695,0.981
16.004,27.25,46.10,1000.02,0.000000,0.000000,0.00,0,0,0.3948,0.0227,0.8723,-6.1756,18.9542,7.0763,0.958
16.011,27.25,46.10,1000.02,0.000000,0.000000,0.00,0,0,0.3855,0.0117,0.8599,-5.1832,18.3053,7.6718,0.942
16.016,27.25,46.10,1000.02,0.000000,0.000000,0.00,0,0,0.3889,0.0161,0.8364,-3.7634,17.2977,8.0611,0.923
16.022,27.25,46.14,1000.01,0.000000,0.000000,0.00,0,0,0.3760,0.0031,0.8225,-2.4733,15.8473,8.5038,0.904
16.123,27.25,46.11,1000.02,0.000000,0.000000,0.00,0,0,0.3584,0.0483,0.8188,4.5878,-2.9389,7.3511,0.895
16.129,27.25,46.11,1000.02,0.000000,0.000000,0.00,0,0,0.3701,0.0585,0.8096,4.1679,-1.6641,7.7557,0.892
16.135,27.25,46.11,1000.02,0.000000,0.000000,0.00,0,0,0.3809,0.0659,0.8113,2.4046,0.0229,8.1069,0.899
16.141,27.25,46.11,1000.02,0.000000,0.000000,0.00,0,0,0.3877,0.0778,0.8022,0.1985,1.8931,8.5344,0.894
16.147,27.25,46.11,1000.02,0.000000,0.000000,0.00,0,0,0.3887,0.0839,0.8018,-1.6412,3.4427,8.7481,0.895
16.153,27.25,46.11,1000.02,0.000000,0.000000,0.00,0,0,0.3892,0.0888,0.7959,-3.0687,5.0000,9.0916,0.890
16.159,27.25,46.11,1000.02,0.000000,0.000000,0.00,0,0,0.3931,0.0874,0.7932,-4.0382,6.0916,9.1450,0.890
16.165,27.25,46.11,1000.02,0.000000,0.000000,0.00,0,0,0.3960,0.0883,0.7896,-4.3511,7.1145,9.3359,0.888
16.171,27.25,46.11,1000.02,0.000000,0.000000,0.00,0,0,0.4019,0.0817,0.7832,-4.7328,8.0534,9.0687,0.884
16.177,27.25,46.11,1000.02,0.000000,0.000000,0.00,0,0,0.4009,0.0783,0.7856,-4.7481,8.9237,8.5573,0.885
16.285,27.22,46.12,999.95,0.000000,0.000000,0.00,0,0,0.4211,0.1160,0.8208,15.5496,16.4351,2.1221,0.930
16.292,27.22,46.12,999.95,0.000000,0.000000,0.00,0,0,0.4336,0.1245,0.8403,12.3359,19.8702,3.2061,0.954
16.297,27.22,46.12,999.95,0.000000,0.000000,0.00,0,0,0.4475,0.1340,0.7874,10.8779,21.3053,2.7099,0.916
16.303,27.22,46.12,999.95,0.000000,0.000000,0.00,0,0,0.4368,0.0998,0.8059,8.4656,22.8855,3.3893,0.922
16.309,27.22,46.12,999.97,0.000000,0.000000,0.00,0,0,0.3604,0.1106,0.8081,-4.8779,26.1756,-3.0687,0.892
16.383,27.25,46.08,1000.02,0.000000,0.000000,0.00,0,0,0.3660,0.1125,0.7991,-7.3588,25.8626,-4.3893,0.886
16.389,27.25,46.08,1000.02,0.000000,0.000000,0.00,0,0,0.3555,0.1152,0.8181,-9.7939,24.9542,-5.5115,0.899
16.395,27.25,46.08,1000.02,0.000000,0.000000,0.00,0,0,0.3528,0.1118,0.8193,-12.3511,24.2672,-6.6336,0.899
16.401,27.25,46.08,1000.02,0.000000,0.000000,0.00,0,0,0.3530,0.1001,0.8162,-14.5954,23.3511,-7.8855,0.895
16.407,27.25,46.08,1000.02,0.000000,0.000000,0.00,0,0,0.3511,0.0969,0.8140,-16.2290,22.6031,-9.3359,0.892
16.556,27.26,46.13,1000.01,0.000000,0.000000,0.00,0,0,0.3569,0.1067,0.8347,-11.2519,22.9466,-43.7786,0.914
16.561,27.26,46.13,1000.01,0.000000,0.000000,0.00,0,0,0.3611,0.1089,0.8345,-12.2977,24.8321,-43.7481,0.916
16.567,27.26,46.13,1000.01,0.000000,0.000000,0.00,0,0,0.3513,0.1008,0.8306,-13.4733,26.8321,-43.6641,0.907
16.574,27.26,46.15,1000.03,0.000000,0.000000,0.00,0,0,0.2981,0.0524,0.8247,-18.5191,40.6031,-41.7863,0.878
16.648,27.26,46.15,1000.03,0.000000,0.000000,0.00,0,0,0.2961,0.0493,0.8157,-17.0992,41.6031,-41.3435,0.869
16.654,27.26,46.15,1000.03,0.000000,0.000000,0.00,0,0,0.2834,0.0427,0.8257,-15.5573,42.4580,-40.5344,0.874
16.659,27.26,46.15,1000.03,0.000000,0.000000,0.00,0,0,0.2859,0.0456,0.8113,-13.0000,43.6336,-39.4198,0.861
16.665,27.26,46.15,1000.03,0.000000,0.000000,0.00,0,0,0.2773,0.0410,0.8220,-10.8092,44.4504,-38.7176,0.869
16.671,27.26,46.15,1000.03,0.000000,0.000000,0.00,0,0,0.2703,0.0454,0.8059,-8.9084,45.4046,-37.7634,0.851
16.677,27.26,46.15,1000.03,0.000000,0.000000,0.00,0,0,0.2571,0.0649,0.8071,-7.1145,46.2748,-36.4198,0.850
16.985,27.26,46.22,1000.01,0.000000,0.000000,0.00,0,0,0.0874,0.0773,0.9028,-5.9847,5.0229,5.6031,0.910
16.991,27.26,46.22,1000.01,0.000000,0.000000,0.00,0,0,0.0815,0.0717,0.9031,-4.9695,4.3053,6.1450,0.910
16.997,27.26,46.22,1000.01,0.000000,0.000000,0.00,0,0,0.0769,0.0776,0.9070,-3.9313,4.1527,6.6412,0.914
17.003,27.26,46.26,1000.03,0.000000,0.000000,0.00,0,0,0.0815,0.0744,0.8989,-3.3664,3.6183,7.2366,0.906
17.009,27.26,46.26,1000.03,0.000000,0.000000,0.00,0,0,0.0864,0.0810,0.8989,-2.7863,3.4275,7.5267,0.907
17.015,27.26,46.26,1000.03,0.000000,0.000000,0.00,0,0,0.0886,0.0786,0.8936,-2.4656,2.9847,7.9466,0.901
17.020,27.26,46.26,1000.03,0.000000,0.000000,0.00,0,0,0.0905,0.0971,0.8948,-2.6183,2.7939,8.4198,0.905
17.026,27.26,46.26,1000.03,0.000000,0.000000,0.00,0,0,0.0915,0.0966,0.8914,-3.0000,2.8931,8.6718,0.901
17.032,27.26,46.26,1000.03,0.000000,0.000000,0.00,0,0,0.0979,0.0991,0.8967,-3.5344,3.2214,9.2824,0.907
17.038,27.26,46.26,1000.03,0.000000,0.000000,0.00,0,0,0.1018,0.0952,0.8931,-4.0534,3.2595,9.5038,0.904
17.113,27.23,46.29,999.95,0.000000,0.000000,0.00,0,0,0.0983,0.0546,0.8887,-3.9771,3.2824,11.5573,0.896
17.119,27.23,46.29,999.95,0.000000,0.000000,0.00,0,0,0.0954,0.0610,0.8833,-3.7099,3.6183,11.3588,0.891
17.125,27.23,46.29,999.95,0.000000,0.000000,0.00,0,0,0.0979,0.0649,0.8853,-4.3359,4.0840,11.5573,0.893
17.131,27.23,46.29,999.95,0.000000,0.000000,0.00,0,0,0.0847,0.0676,0.8826,-4.8168,4.5344,11.2290,0.889
17.137,27.23,46.29,999.95,0.000000,0.000000,0.00,0,0,0.0898,0.0666,0.8916,-5.4733,5.0992,11.1374,0.899
17.143,27.23,46.29,999.95,0.000000,0.000000,0.00,0,0,0.0783,0.0539,0.8926,-5.7863,5.2672,10.9771,0.898
17.149,27.23,46.29,999.95,0.000000,0.000000,0.00,0,0,0.0903,0.0610,0.8867,-5.5954,5.6489,10.8015,0.893
17.155,27.24,46.31,999.95,0.000000,0.000000,0.00,0,0,0.0676,0.0434,0.8889,-4.3359,7.1069,7.8015,0.893
17.229,27.24,46.31,999.95,0.000000,0.000000,0.00,0,0,0.0644,0.0397,0.8782,-4.4198,7.1069,7.3740,0.881
17.235,27.24,46.31,999.95,0.000000,0.000000,0.00,0,0,0.0690,0.0432,0.8850,-4.7557,6.7099,6.9466,0.889
17.290,27.24,46.31,999.95,0.000000,0.000000,0.00,0,0,0.0771,0.0314,0.8940,-2.6794,0.9160,0.8092,0.898
17.296,27.26,46.33,999.97,0.000000,0.000000,0.00,0,0,0.0803,0.0288,0.8926,-2.5802,0.3740,0.0305,0.897
17.301,27.26,46.33,999.97,0.000000,0.000000,0.00,0,0,0.0761,0.0293,0.8862,-2.3130,0.0305,-0.7481,0.890
17.307,27.26,46.33,999.97,0.000000,0.000000,0.00,0,0,0.0832,0.0324,0.8806,-2.2443,-0.8321,-0.9084,0.885
17.313,27.26,46.33,999.97,0.000000,0.000000,0.00,0,0,0.0830,0.0224,0.8906,-2.2137,-1.2366,-1.6107,0.895
17.319,27.26,46.33,999.97,0.000000,0.000000,0.00,0,0,0.0881,0.0305,0.8816,-1.8015,-1.9542,-1.9237,0.887
17.325,27.26,46.33,999.97,0.000000,0.000000,0.00,0,0,0.0922,0.0327,0.8877,-2.1069,-2.3511,-2.1679,0.893
17.331,27.26,46.33,999.97,0.000000,0.000000,0.00,0,0,0.0969,0.0341,0.8887,-2.9466,-2.6107,-2.0611,0.895
17.337,27.26,46.33,999.97,0.000000,0.000000,0.00,0,0,0.0959,0.0319,0.8943,-3.7557,-2.6336,-2.0611,0.900
17.343,27.26,46.33,999.97,0.000000,0.000000,0.00,0,0,0.0903,0.0351,0.8962,-4.1985,-2.3511,-2.1145,0.901
17.475,27.23,46.38,999.93,0.000000,0.000000,0.00,0,0,0.0671,0.0556,0.9172,-6.5573,1.7786,0.0000,0.921
17.481,27.23,46.38,999.93,0.000000,0.000000,0.00,0,0,0.0639,0.0397,0.9233,-7.7863,1.4122,0.1985,0.926
17.487,27.23,46.38,1000.01,0.000000,0.000000,0.00,0,0,0.0612,0.0456,0.9260,-8.5802,1.4733,-0.0839,0.929
17.493,27.27,46.46,1000.01,0.000000,0.000000,0.00,0,0,0.0551,0.0329,0.9155,-9.5802,1.4122,0.0000,0.918
17.499,27.27,46.46,1000.01,0.000000,0.000000,0.00,0,0,0.0564,0.0266,0.9104,-9.7176,1.1603,-0.2443,0.913
17.505,27.27,46.46,1000.01,0.000000,0.000000,0.00,0,0,0.0651,0.0136,0.9072,-9.6794,1.0763,-0.3893,0.910
17.511,27.27,46.46,1000.01,0.000000,0.000000,0.00,0,0,0.0603,0.0163,0.9111,-8.7099,0.7710,-0.4198,0.913
17.517,27.27,46.46,1000.01,0.000000,0.000000,0.00,0,0,0.0566,0.0017,0.8977,-6.0992,0.3969,-0.7481,0.899
17.523,27.27,46.46,1000.01,0.000000,0.000000,0.00,0,0,0.0688,0.0039,0.9272,-6.4122,0.1832,-1.1450,0.930
17.529,27.27,46.46,1000.01,0.000000,0.000000,0.00,0,0,0.0664,0.0190,0.8965,-5.9695,0.9542,-2.1145,0.899
17.618,27.24,46.46,999.96,0.000000,0.000000,0.00,0,0,0.1140,0.0468,0.9146,-4.2977,-0.7023,-12.3282,0.923
17.624,27.24,46.46,999.96,0.000000,0.000000,0.00,0,0,0.1121,0.0373,0.8750,-6.3588,0.4046,-13.0305,0.883
17.629,27.24,46.46,999.96,0.000000,0.000000,0.00,0,0,0.1189,0.0463,0.9165,-7.7863,1.2214,-13.1679,0.925
17.635,27.24,46.46,999.96,0.000000,0.000000,0.00,0,0,0.1365,0.0639,0.9021,-9.4733,2.7099,-13.3130,0.915
17.641,27.24,46.46,999.96,0.000000,0.000000,0.00,0,0,0.1228,0.0429,0.9124,-10.7557,2.7099,-14.1221,0.922
17.647,27.24,46.46,999.96,0.000000,0.000000,0.00,0,0,0.1169,0.0395,0.8970,-12.6641,4.3969,-14.4885,0.905
17.653,27.24,46.46,999.96,0.000000,0.000000,0.00,0,0,0.1138,0.0190,0.9058,-13.9771,4.5344,-14.6031,0.913
17.659,27.24,46.46,999.96,0.000000,0.000000,0.00,0,0,0.1125,0.0170,0.8962,-14.4733,5.5191,-14.8702,0.903
17.666,27.24,46.46,999.96,0.000000,0.000000,0.00,0,0,0.1052,0.0041,0.8809,-15.2748,6.2290,-15.3130,0.887
17.671,27.24,46.46,999.96,0.000000,0.000000,0.00,0,0,0.1050,0.0041,0.9119,-14.8168,6.6260,-15.6031,0.918
17.778,27.26,46.50,999.97,0.000000,0.000000,0.00,0,0,0.1025,-0.0603,0.8713,-9.0840,11.2595,-23.2595,0.879
17.784,27.27,46.51,1000.00,0.000000,0.000000,0.00,0,0,0.1011,-0.0571,0.8530,-7.5344,11.5344,-23.0305,0.861
17.790,27.27,46.51,1000.00,0.000000,0.000000,0.00,0,0,0.0988,-0.0483,0.8552,-5.8550,11.7176,-22.8626,0.862
17.796,27.27,46.51,1000.00,0.000000,0.000000,0.00,0,0,0.1028,-0.0481,0.8623,-4.8626,11.9542,-22.4656,0.870
17.802,27.27,46.51,1000.00,0.000000,0.000000,0.00,0,0,0.1062,-0.0432,0.8655,-3.7786,12.5344,-21.8702,0.873
17.808,27.27,46.51,1000.00,0.000000,0.000000,0.00,0,0,0.1021,-0.0476,0.8677,-2.8397,12.5496,-21.2901,0.875
17.814,27.27,46.51,1000.00,0.000000,0.000000,0.00,0,0,0.1062,-0.0483,0.8613,-1.5191,12.8244,-20.7710,0.869
17.820,27.27,46.51,1000.00,0.000000,0.000000,0.00,0,0,0.1040,-0.0405,0.8782,-0.5649,13.0076,-20.0916,0.885
17.826,27.27,46.51,1000.00,0.000000,0.000000,0.00,0,0,0.1052,-0.0371,0.8650,0.5802,13.0076,-19.1832,0.872
17.832,27.23,46.55,999.93,0.000000,0.000000,0.00,0,0,0.1033,-0.0029,0.9001,-1.9466,16.8092,-7.7939,0.906
18.105,27.28,46.62,1000.02,0.000000,0.000000,0.00,0,0,-0.0029,-0.0717,0.8855,-2.1221,0.6260,10.6718,0.888
18.111,27.28,46.62,1000.02,0.000000,0.000000,0.00,0,0,-0.0029,-0.0712,0.8828,-1.0534,0.1527,11.0076,0.886
18.117,27.28,46.62,1000.02,0.000000,0.000000,0.00,0,0,-0.0029,-0.0771,0.8762,-0.3740,-0.5802,11.2824,0.880
18.123,27.28,46.62,1000.02,0.000000,0.000000,0.00,0,0,0.0014,-0.0766,0.8853,0.4656,-0.9695,11.4962,0.889
18.129,27.28,46.62,1000.02,0.000000,0.000000,0.00,0,0,-0.0051,-0.0822,0.8879,1.0000,-1.4351,11.7939,0.892
18.135,27.28,46.62,1000.02,0.000000,0.000000,0.00,0,0,-0.0041,-0.0813,0.8989,1.3282,-1.7481,12.0687,0.903
18.141,27.28,46.62,1000.02,0.000000,0.000000,0.00,0,0,-0.0017,-0.0752,0.8811,1.8473,-2.0534,12.4275,0.884
18.147,27.28,46.62,1000.02,0.000000,0.000000,0.00,0,0,-0.0009,-0.0749,0.8933,1.6183,-2.3130,12.4427,0.896
18.153,27.28,46.62,1000.02,0.000000,0.000000,0.00,0,0,0.0017,-0.0708,0.9063,1.1756,-2.6718,12.2443,0.909
18.159,27.28,46.62,999.99,0.000000,0.000000,0.00,0,0,0.0190,-0.0427,0.9170,21.0992,-10.9771,7.3130,0.918
18.365,27.28,46.69,1000.01,0.000000,0.000000,0.00,0,0,0.0681,-0.0666,0.8708,-9.1679,-6.8550,-1.5267,0.876
18.371,27.28,46.74,1000.00,0.000000,0.000000,0.00,0,0,0.0678,-0.0708,0.8792,-8.8855,-7.0687,-0.5954,0.885
18.377,27.28,46.74,1000.00,0.000000,0.000000,0.00,0,0,0.0703,-0.0651,0.8677,-8.1450,-7.1832,0.1832,0.873
18.383,27.28,46.74,1000.00,0.000000,0.000000,0.00,0,0,0.0708,-0.0786,0.8657,-7.0611,-7.2901,0.6107,0.872
18.389,27.28,46.74,1000.00,0.000000,0.000000,0.00,0,0,0.0749,-0.0800,0.8594,-5.6031,-7.1145,1.3969,0.866
18.395,27.28,46.74,1000.00,0.000000,0.000000,0.00,0,0,0.0725,-0.0832,0.8755,-4.0840,-6.9389,1.8855,0.882
18.401,27.28,46.74,1000.00,0.000000,0.000000,0.00,0,0,0.0769,-0.0869,0.8782,-2.9008,-6.3740,2.8244,0.886
18.407,27.28,46.74,1000.00,0.000000,0.000000,0.00,0,0,0.0832,-0.0861,0.8813,-2.0840,-6.0000,3.7252,0.889
18.413,27.28,46.74,1000.00,0.000000,0.000000,0.00,0,0,0.0742,-0.0813,0.8738,-1.1069,-5.4351,4.4122,0.881
18.419,27.28,46.74,1000.00,0.000000,0.000000,0.00,0,0,0.0798,-0.0795,0.8711,0.4427,-4.6489,5.0763,0.878
18.537,27.24,46.74,999.95,0.000000,0.000000,0.00,0,0,0.0346,0.0087,0.9092,5.4046,1.6947,2.1832,0.910
18.611,27.28,46.78,1000.00,0.000000,0.000000,0.00,0,0,0.0459,0.0019,0.9163,4.6412,1.1527,1.3740,0.917
18.617,27.28,46.78,1000.00,0.000000,0.000000,0.00,0,0,0.0510,0.0053,0.9102,3.9847,0.8397,0.7557,0.912
18.623,27.28,46.78,1000.00,0.000000,0.000000,0.00,0,0,0.0388,-0.0048,0.9077,3.1298,0.3893,0.2519,0.909
18.629,27.28,46.78,1000.00,0.000000,0.000000,0.00,0,0,0.0332,-0.0043,0.9153,2.3130,0.4580,-0.4504,0.916
18.635,27.28,46.78,1000.00,0.000000,0.000000,0.00,0,0,0.0205,-0.0105,0.9338,0.2977,0.1603,-1.2061,0.934
18.641,27.28,46.78,1000.00,0.000000,0.000000,0.00,0,0,0.0439,0.0144,0.8965,-1.6641,0.8321,-1.6183,0.898
18.647,27.28,46.78,1000.00,0.000000,0.000000,0.00,0,0,0.0585,0.0024,0.8914,-1.1298,-0.1985,-1.9771,0.893
18.653,27.28,46.78,1000.00,0.000000,0.000000,0.00,0,0,0.0495,-0.0004,0.8997,-1.5954,0.1221,-1.7634,0.901
18.659,27.28,46.78,1000.00,0.000000,0.000000,0.00,0,0,0.0546,-0.0112,0.9233,-2.9771,-0.1450,-2.2824,0.925
18.795,27.28,46.83,999.99,0.000000,0.000000,0.00,0,0,0.0759,-0.0412,0.8896,4.4962,0.8550,-1.0076,0.894
18.801,27.28,46.83,999.99,0.000000,0.000000,0.00,0,0,0.0771,-0.0312,0.8960,4.6641,1.0687,-1.0229,0.900
18.807,27.28,46.83,999.99,0.000000,0.000000,0.00,0,0,0.0817,-0.0322,0.8977,5.0076,1.4198,-0.8931,0.902
18.813,27.28,46.83,999.99,0.000000,0.000000,0.00,0,0,0.0813,-0.0341,0.8884,5.3130,1.6947,-1.1069,0.893
18.819,27.28,46.83,999.99,0.000000,0.000000,0.00,0,0,0.0781,-0.0378,0.8823,5.4122,2.1908,-0.9084,0.887
18.825,27.28,46.83,999.99,0.000000,0.000000,0.00,0,0,0.0827,-0.0363,0.8918,5.7863,2.5267,-0.9771,0.896
18.831,27.28,46.83,999.99,0.000000,0.000000,0.00,0,0,0.0795,-0.0329,0.8948,6.1069,2.8244,-0.8473,0.899
18.837,27.28,46.83,999.99,0.000000,0.000000,0.00,0,0,0.0795,-0.0327,0.8887,6.3893,3.0229,-0.9084,0.893
18.843,27.28,46.83,999.99,0.000000,0.000000,0.00,0,0,0.0773,-0.0312,0.8904,6.5191,3.5496,-0.9084,0.894
18.849,27.28,46.83,999.99,0.000000,0.000000,0.00,0,0,0.0781,-0.0246,0.8950,6.3130,3.9008,-0.9924,0.899
18.964,27.28,46.88,1000.00,0.000000,0.000000,0.00,0,0,0.0522,-0.0109,0.9031,11.0305,4.0076,-6.9771,0.905
18.970,27.28,46.88,1000.00,0.000000,0.000000,0.00,0,0,0.0522,-0.0151,0.9280,12.1145,3.6641,-8.2977,0.930
18.976,27.28,46.88,1000.00,0.000000,0.000000,0.00,0,0,0.0432,-0.0134,0.9238,13.1679,3.5496,-9.1756,0.925
18.981,27.28,46.88,1000.00,0.000000,0.000000,0.00,0,0,0.0463,-0.0268,0.9458,15.2290,2.7939,-10.0076,0.947
18.987,27.28,46.88,1000.00,0.000000,0.000000,0.00,0,0,0.0390,-0.0344,0.9390,18.7634,1.5954,-10.8779,0.940
18.993,27.28,46.88,1000.00,0.000000,0.000000,0.00,0,0,0.0439,-0.0461,0.9302,22.7328,0.4198,-11.8702,0.932
18.999,27.28,46.88,1000.00,0.000000,0.000000,0.00,0,0,0.0410,-0.0344,0.8967,26.5420,-0.7634,-12.3053,0.898
19.006,27.25,46.89,999.97,0.000000,0.000000,0.00,0,0,0.0988,0.0539,0.8950,39.5649,-1.9466,-3.0229,0.902
19.080,27.25,46.89,999.97,0.000000,0.000000,0.00,0,0,0.0964,0.0759,0.8848,39.2824,-1.4809,-2.5725,0.893
19.086,27.25,46.89,999.97,0.000000,0.000000,0.00,0,0,0.0866,0.1135,0.8672,40.2672,-0.7328,-1.7710,0.879
19.228,27.27,46.92,999.97,0.000000,0.000000,0.00,0,0,0.0656,0.1082,0.8809,21.3817,-0.7557,-13.1145,0.890
19.234,27.27,46.92,999.97,0.000000,0.000000,0.00,0,0,0.0720,0.1045,0.8552,20.0687,0.4962,-12.8092,0.865
19.240,27.27,46.92,999.97,0.000000,0.000000,0.00,0,0,0.0793,0.1064,0.8608,19.4809,1.8855,-12.9542,0.871
19.246,27.27,46.92,999.99,0.000000,0.000000,0.00,0,0,0.0844,0.1018,0.8655,19.2519,2.8321,-12.7710,0.876
19.252,27.28,46.93,999.99,0.000000,0.000000,0.00,0,0,0.0918,0.1597,0.8879,19.3435,3.2366,-11.8473,0.907
19.326,27.28,46.93,999.99,0.000000,0.000000,0.00,0,0,0.0822,0.1504,0.8586,20.1145,3.3053,-12.2901,0.876
19.332,27.28,46.93,999.99,0.000000,0.000000,0.00,0,0,0.0849,0.1462,0.8682,19.8550,3.7099,-12.3130,0.884
19.338,27.28,46.93,999.99,0.000000,0.000000,0.00,0,0,0.0778,0.1470,0.8894,19.8244,3.9008,-12.0305,0.905
19.344,27.28,46.93,999.99,0.000000,0.000000,0.00,0,0,0.0805,0.1313,0.8752,20.1679,3.9924,-12.1145,0.889
19.350,27.28,46.96,999.99,0.000000,0.000000,0.00,0,0,0.0747,0.1287,0.8743,21.5420,4.1298,-11.7099,0.887
19.495,27.28,46.95,999.98,0.000000,0.000000,0.00,0,0,0.0607,0.2139,0.9199,-5.8015,3.2519,2.0763,0.946
19.501,27.28,46.95,999.98,0.000000,0.000000,0.00,0,0,0.0671,0.1877,0.9180,-5.8931,2.0305,1.5725,0.939
19.507,27.28,46.95,999.98,0.000000,0.000000,0.00,0,0,0.0627,0.1782,0.9014,-6.6260,1.1756,1.2137,0.921
19.513,27.28,46.95,999.98,0.000000,0.000000,0.00,0,0,0.0544,0.1624,0.8850,-6.5267,0.1374,1.0840,0.901
19.519,27.28,46.95,999.98,0.000000,0.000000,0.00,0,0,0.0451,0.1616,0.8623,-6.2672,-0.4427,1.1756,0.878
19.525,27.28,46.95,999.98,0.000000,0.000000,0.00,0,0,0.0564,0.1616,0.8599,-7.0076,-1.0229,0.9160,0.877
19.531,27.28,46.95,999.98,0.000000,0.000000,0.00,0,0,0.0444,0.1448,0.8923,-8.5878,-1.0916,0.8015,0.905
19.537,27.28,46.95,999.98,0.000000,0.000000,0.00,0,0,0.0461,0.1411,0.9084,-7.8931,-2.1756,0.6489,0.920
19.543,27.29,46.97,1000.00,0.000000,0.000000,0.00,0,0,0.0246,0.1318,0.9148,-6.4275,-2.5573,0.4733,0.925
19.549,27.29,46.97,1000.00,0.000000,0.000000,0.00,0,0,0.0246,0.1340,0.9109,-4.6489,-3.3282,0.6641,0.921
19.628,27.29,46.97,1000.00,0.000000,0.000000,0.00,0,0,0.0961,0.1702,0.8640,1.5191,-1.2901,5.8321,0.886
19.634,27.29,46.97,1000.00,0.000000,0.000000,0.00,0,0,0.0937,0.1541,0.8940,0.7252,-1.4198,5.5878,0.912
19.640,27.27,46.99,999.97,0.000000,0.000000,0.00,0,0,0.0998,0.1709,0.8777,-0.0076,-1.3893,5.6794,0.900
19.646,27.27,46.99,999.97,0.000000,0.000000,0.00,0,0,0.0949,0.1626,0.8877,0.0992,-1.2977,5.2519,0.907
19.652,27.27,46.99,999.97,0.000000,0.000000,0.00,0,0,0.0922,0.1531,0.8975,0.5344,-1.2290,4.9695,0.915
19.658,27.27,46.99,999.97,0.000000,0.000000,0.00,0,0,0.0922,0.1602,0.8823,1.8015,-1.4275,4.3435,0.901
19.664,27.27,46.99,999.97,0.000000,0.000000,0.00,0,0,0.0730,0.1797,0.8828,-6.0153,8.7023,-3.7328,0.904
19.738,27.26,46.99,999.95,0.000000,0.000000,0.00,0,0,0.0778,0.1685,0.8926,-6.2595,9.1145,-4.8397,0.912
19.744,27.26,46.99,999.95,0.000000,0.000000,0.00,0,0,0.0683,0.1621,0.8979,-6.1908,9.4275,-5.7939,0.915
19.750,27.26,46.99,999.95,0.000000,0.000000,0.00,0,0,0.0727,0.1611,0.8865,-5.8473,9.7099,-6.9160,0.904
19.885,27.27,46.96,999.95,0.000000,0.000000,0.00,0,0,0.0405,0.1567,0.8948,-1.8473,12.1756,-10.9924,0.909
19.891,27.27,46.96,999.95,0.000000,0.000000,0.00,0,0,0.0368,0.1555,0.9014,-1.5573,11.8702,-10.8092,0.915
19.897,27.27,46.96,999.95,0.000000,0.000000,0.00,0,0,0.0336,0.1621,0.8960,-1.0153,11.5267,-10.6260,0.911
19.903,27.27,46.96,999.95,0.000000,0.000000,0.00,0,0,0.0349,0.1531,0.8928,-0.7405,11.0687,-10.8168,0.907
19.909,27.27,46.96,999.95,0.000000,0.000000,0.00,0,0,0.0332,0.1555,0.8953,-1.1145,11.0534,-10.6107,0.909
19.915,27.27,46.96,999.95,0.000000,0.000000,0.00,0,0,0.0368,0.1609,0.8823,-1.3588,11.0840,-10.2214,0.898
19.921,27.27,46.96,999.95,0.000000,0.000000,0.00,0,0,0.0317,0.1602,0.8955,-1.7328,11.0840,-10.0229,0.910
19.927,27.27,46.96,999.95,0.000000,0.000000,0.00,0,0,0.0305,0.1648,0.8909,-2.3130,10.9847,-9.5038,0.906
19.933,27.29,46.96,999.98,0.000000,0.000000,0.00,0,0,0.0231,0.1597,0.9009,-2.6336,11.1069,-9.1603,0.915
19.939,27.29,46.96,999.98,0.000000,0.000000,0.00,0,0,0.0229,0.1636,0.8899,-2.7252,11.0305,-9.0229,0.905
20.026,27.29,46.96,999.98,0.000000,0.000000,0.00,0,0,0.0131,0.1038,0.8792,-2.7557,5.3817,-2.3969,0.885
20.032,27.28,47.01,999.99,0.000000,0.000000,0.00,0,0,0.0065,0.0930,0.8574,-3.0992,4.5954,-2.2061,0.862
20.038,27.28,47.01,999.99,0.000000,0.000000,0.00,0,0,-0.0056,0.0813,0.8501,-2.6489,3.2824,-2.0458,0.854
20.044,27.28,47.01,999.99,0.000000,0.000000,0.00,0,0,-0.0087,0.0656,0.8430,-1.1145,1.3969,-1.6260,0.846
20.050,27.28,47.01,999.99,0.000000,0.000000,0.00,0,0,-0.0127,0.0495,0.7976,2.9618,-0.5878,-1.8855,0.799
20.056,27.28,47.01,999.99,0.000000,0.000000,0.00,0,0,-0.2090,-0.1028,0.5693,17.3359,-8.9695,-3.0763,0.615
20.062,27.28,47.01,999.99,0.000000,0.000000,0.00,0,0,0.0334,0.0847,1.0676,23.4198,-9.5802,-1.5725,1.072
20.068,27.28,47.01,999.99,0.000000,0.000000,0.00,0,0,0.0942,0.0864,0.9070,22.0458,-12.6031,-5.6412,0.916
20.074,27.28,47.01,999.99,0.000000,0.000000,0.00,0,0,0.0595,0.1816,0.9141,23.2824,-15.6565,-3.8168,0.934
20.080,27.28,47.01,999.99,0.000000,0.000000,0.00,0,0,-0.0205,0.1611,0.8735,21.9924,-16.8702,-3.5725,0.889
20.267,27.29,46.96,1000.00,0.000000,0.000000,0.00,0,0,0.0446,0.1702,0.8845,4.4275,14.8779,3.4809,0.902
20.273,27.29,46.96,1000.00,0.000000,0.000000,0.00,0,0,0.0346,0.1677,0.8884,3.4351,14.7863,3.5038,0.905
20.279,27.29,46.96,1000.00,0.000000,0.000000,0.00,0,0,0.0253,0.1812,0.8923,2.5267,14.5115,2.7863,0.911
20.285,27.29,46.96,1000.00,0.000000,0.000000,0.00,0,0,0.0158,0.1804,0.8728,1.6565,13.9847,2.3664,0.891
20.291,27.29,46.96,1000.00,0.000000,0.000000,0.00,0,0,0.0144,0.1792,0.8706,0.5725,13.6031,1.9542,0.889
20.297,27.29,46.96,1000.00,0.000000,0.000000,0.00,0,0,0.0092,0.1797,0.8743,-0.2672,13.0534,1.2901,0.893
20.303,27.29,46.96,1000.00,0.000000,0.000000,0.00,0,0,0.0000,0.1782,0.8772,-0.9771,12.4046,0.6412,0.895
20.309,27.29,46.96,1000.00,0.000000,0.000000,0.00,0,0,-0.0065,0.1660,0.8735,-1.4427,12.0687,-0.1908,0.889
20.314,27.29,46.96,1000.00,0.000000,0.000000,0.00,0,0,0.0021,0.1611,0.8818,-1.3359,11.3817,-1.1603,0.896
20.320,27.29,46.96,1000.00,0.000000,0.000000,0.00,0,0,-0.0127,0.1028,0.9128,2.0534,6.9008,-8.3130,0.919
20.461,27.29,46.95,999.99,0.000000,0.000000,0.00,0,0,-0.0092,0.1650,0.8926,6.1679,7.2443,-2.9771,0.908
20.536,27.29,46.95,999.99,0.000000,0.000000,0.00,0,0,-0.0148,0.1575,0.8926,5.8855,6.9618,-3.2595,0.906
20.542,27.29,46.95,999.99,0.000000,0.000000,0.00,0,0,-0.0124,0.1589,0.8965,5.3664,6.9237,-2.8397,0.911
20.548,27.29,46.95,999.99,0.000000,0.000000,0.00,0,0,-0.0107,0.1572,0.8799,4.7939,6.5115,-2.5191,0.894
20.554,27.29,46.95,999.99,0.000000,0.000000,0.00,0,0,-0.0129,0.1616,0.8767,5.0305,6.0382,-2.3206,0.892
20.560,27.29,46.95,999.99,0.000000,0.000000,0.00,0,0,-0.0127,0.1543,0.8894,5.0382,5.8779,-2.0534,0.903
20.566,27.29,46.95,999.99,0.000000,0.000000,0.00,0,0,-0.0107,0.1650,0.8765,5.1221,5.5725,-1.7634,0.892
20.572,27.29,46.95,999.99,0.000000,0.000000,0.00,0,0,-0.0078,0.1609,0.8950,5.0153,5.1527,-1.5267,0.909
20.578,27.29,46.95,999.99,0.000000,0.000000,0.00,0,0,-0.0107,0.1704,0.8901,4.5496,5.0916,-1.2824,0.906
20.584,27.29,46.95,999.99,0.000000,0.000000,0.00,0,0,-0.0097,0.1711,0.8965,3.6031,4.9160,-0.9084,0.913
20.815,27.29,46.95,1000.01,0.000000,0.000000,0.00,0,0,-0.0122,0.1631,0.8899,2.4275,2.1527,0.4275,0.905
20.821,27.29,46.95,1000.01,0.000000,0.000000,0.00,0,0,-0.0112,0.1604,0.8909,2.3588,1.9160,0.0610,0.905
20.827,27.29,46.95,1000.01,0.000000,0.000000,0.00,0,0,-0.0102,0.1619,0.8945,2.0229,1.8855,-0.0763,0.909
20.833,27.29,46.95,1000.01,0.000000,0.000000,0.00,0,0,-0.0080,0.1614,0.8933,1.5420,1.9542,-0.1069,0.908
20.839,27.29,46.95,1000.01,0.000000,0.000000,0.00,0,0,-0.0058,0.1694,0.8867,1.4122,1.6565,-0.4733,0.903
20.845,27.29,46.95,1000.01,0.000000,0.000000,0.00,0,0,-0.0073,0.1702,0.8882,1.0687,1.7252,-0.4733,0.904
20.851,27.29,46.95,1000.01,0.000000,0.000000,0.00,0,0,-0.0085,0.1704,0.8928,0.7710,1.7328,-0.5878,0.909
20.857,27.29,46.95,1000.01,0.000000,0.000000,0.00,0,0,-0.0090,0.1689,0.8909,0.2824,1.8931,-0.6031,0.907
20.863,27.29,46.95,1000.01,0.000000,0.000000,0.00,0,0,-0.0075,0.1606,0.8914,0.0381,1.8397,-0.6947,0.906
20.869,27.29,46.95,1000.01,0.000000,0.000000,0.00,0,0,-0.0134,0.1667,0.8813,-0.0763,2.0229,-0.6718,0.897
20.958,27.26,46.95,999.96,0.000000,0.000000,0.00,0,0,-0.0178,0.1479,0.8845,0.9847,2.6947,-0.7634,0.897
20.964,27.26,46.95,999.96,0.000000,0.000000,0.00,0,0,-0.0195,0.1497,0.8931,1.3053,2.5115,-1.1374,0.906
20.970,27.26,46.95,999.96,0.000000,0.000000,0.00,0,0,-0.0190,0.1421,0.8870,1.8626,2.1679,-0.7939,0.898
20.975,27.26,46.95,999.96,0.000000,0.000000,0.00,0,0,-0.0178,0.1414,0.8823,2.3893,2.0000,-0.9237,0.894
20.982,27.26,46.95,999.96,0.000000,0.000000,0.00,0,0,-0.0173,0.1519,0.8809,2.9695,1.9084,-0.9542,0.894
20.987,27.26,46.95,999.96,0.000000,0.000000,0.00,0,0,-0.0124,0.1519,0.8787,3.0534,1.5191,-0.7786,0.892
20.993,27.26,46.95,999.96,0.000000,0.000000,0.00,0,0,-0.0117,0.1509,0.8916,2.8702,1.4656,-0.7405,0.904
20.999,27.26,46.95,999.96,0.000000,0.000000,0.00,0,0,-0.0122,0.1519,0.8950,2.7786,1.2366,-0.5267,0.908
21.006,27.26,46.92,1000.03,0.000000,0.000000,0.00,0,0,-0.0161,0.1519,0.9016,2.6718,1.3206,-0.2824,0.914
21.011,27.29,46.93,1000.03,0.000000,0.000000,0.00,0,0,-0.0065,0.1519,0.8904,2.7481,1.1450,-0.1450,0.903
21.101,27.29,46.95,1000.00,0.000000,0.000000,0.00,0,0,-0.0170,0.1741,0.8892,3.4885,2.7099,2.8397,0.906
21.175,27.29,46.95,1000.00,0.000000,0.000000,0.00,0,0,-0.0112,0.1731,0.8938,3.4733,3.0382,2.9008,0.910
21.181,27.29,46.95,1000.00,0.000000,0.000000,0.00,0,0,-0.0100,0.1653,0.8972,3.2137,3.5725,3.2443,0.912
21.187,27.29,46.95,1000.00,0.000000,0.000000,0.00,0,0,-0.0078,0.1746,0.8892,2.9924,3.8321,3.4580,0.906
21.193,27.29,46.95,1000.00,0.000000,0.000000,0.00,0,0,-0.0136,0.1685,0.8933,2.3206,4.0840,3.1679,0.909
21.199,27.29,46.95,1000.00,0.000000,0.000000,0.00,0,0,-0.0109,0.1611,0.8882,1.7252,4.2290,3.4046,0.903
21.205,27.29,46.94,1000.00,0.000000,0.000000,0.00,0,0,-0.0114,0.1602,0.8879,1.4580,4.3893,3.4427,0.902
21.211,27.29,46.94,1000.00,0.000000,0.000000,0.00,0,0,-0.0109,0.1602,0.8911,1.3969,4.5802,3.3282,0.905
21.217,27.29,46.94,1000.00,0.000000,0.000000,0.00,0,0,-0.0141,0.1526,0.8916,1.3282,4.4809,3.1298,0.905
21.222,27.29,46.94,1000.00,0.000000,0.000000,0.00,0,0,-0.0180,0.1523,0.8906,1.6794,3.9924,3.0382,0.904
21.346,27.27,46.96,999.96,0.000000,0.000000,0.00,0,0,-0.0229,0.1660,0.8865,1.4198,1.3817,-0.9924,0.902
21.353,27.27,46.96,999.96,0.000000,0.000000,0.00,0,0,-0.0227,0.1606,0.8811,1.2519,1.2443,-1.1527,0.896
21.359,27.27,46.96,999.96,0.000000,0.000000,0.00,0,0,-0.0241,0.1660,0.8835,1.0992,1.1527,-1.3664,0.899
21.364,27.27,46.96,999.96,0.000000,0.000000,0.00,0,0,-0.0180,0.1689,0.8938,0.5496,1.2519,-1.5191,0.910
21.370,27.27,46.96,999.96,0.000000,0.000000,0.00,0,0,-0.0239,0.1631,0.8911,0.1756,1.1298,-1.4656,0.906
21.376,27.27,46.96,999.96,0.000000,0.000000,0.00,0,0,-0.0219,0.1587,0.8977,0.0000,0.9847,-1.8244,0.912
21.382,27.27,46.96,999.96,0.000000,0.000000,0.00,0,0,-0.0139,0.1606,0.8926,-0.1374,0.7176,-1.8015,0.907
21.388,27.27,46.96,999.96,0.000000,0.000000,0.00,0,0,-0.0127,0.1611,0.8887,0.1374,0.4885,-1.8092,0.903
21.394,27.27,46.96,999.96,0.000000,0.000000,0.00,0,0,-0.0151,0.1587,0.8811,0.5038,0.2977,-2.1679,0.895
21.400,27.29,47.01,1000.01,0.000000,0.000000,0.00,0,0,-0.0134,0.1643,0.8889,0.3817,0.3664,-2.0763,0.904
21.550,27.30,46.97,999.99,0.000000,0.000000,0.00,0,0,-0.0122,0.1907,0.8958,3.8244,2.7099,2.6794,0.916
21.556,27.30,46.97,999.99,0.000000,0.000000,0.00,0,0,-0.0161,0.1902,0.8989,3.0611,2.8550,2.6031,0.919
21.562,27.30,46.97,999.99,0.000000,0.000000,0.00,0,0,-0.0180,0.1821,0.8845,2.3893,2.7786,2.3206,0.903
21.568,27.30,46.97,999.99,0.000000,0.000000,0.00,0,0,-0.0127,0.1870,0.8884,1.5267,2.8931,1.7710,0.908
21.573,27.30,46.97,999.99,0.000000,0.000000,0.00,0,0,-0.0188,0.1753,0.8931,0.9695,2.8092,1.8092,0.910
21.579,27.30,46.97,999.99,0.000000,0.000000,0.00,0,0,-0.0239,0.1702,0.8975,0.8473,2.6183,1.1145,0.914
21.585,27.30,46.97,999.99,0.000000,0.000000,0.00,0,0,-0.0229,0.1721,0.8931,0.9389,2.5191,0.7099,0.910
21.591,27.30,46.97,999.99,0.000000,0.000000,0.00,0,0,-0.0219,0.1641,0.8911,1.0382,2.3053,0.8321,0.906
21.597,27.30,46.97,1000.00,0.000000,0.000000,0.00,0,0,-0.0207,0.1599,0.8823,0.6336,2.0992,0.2214,0.897
21.603,27.30,46.97,1000.00,0.000000,0.000000,0.00,0,0,-0.0271,0.1604,0.8806,0.5649,1.9313,0.3588,0.896
21.736,27.29,46.98,999.95,0.000000,0.000000,0.00,0,0,-0.0107,0.1655,0.8914,2.1908,2.6336,0.3740,0.907
21.742,27.29,46.98,999.95,0.000000,0.000000,0.00,0,0,-0.0144,0.1672,0.8889,2.4809,2.7405,0.2748,0.905
21.748,27.29,46.98,999.95,0.000000,0.000000,0.00,0,0,-0.0173,0.1758,0.8879,2.6031,2.5954,0.5267,0.905
21.754,27.29,46.98,999.95,0.000000,0.000000,0.00,0,0,-0.0114,0.1721,0.8850,2.7252,2.7557,0.6718,0.902
21.760,27.29,46.98,999.95,0.000000,0.000000,0.00,0,0,-0.0188,0.1716,0.8806,2.2901,2.8397,0.8855,0.897
21.765,27.29,46.98,999.95,0.000000,0.000000,0.00,0,0,-0.0190,0.1702,0.8840,1.8855,2.7939,1.0229,0.900
21.771,27.29,46.98,999.95,0.000000,0.000000,0.00,0,0,-0.0185,0.1748,0.8892,1.4122,3.2672,1.3740,0.906
21.777,27.29,46.98,999.95,0.000000,0.000000,0.00,0,0,-0.0131,0.1692,0.8894,1.1908,3.3435,1.4809,0.905
21.783,27.29,46.98,999.95,0.000000,0.000000,0.00,0,0,-0.0268,0.1670,0.8914,0.8321,3.3053,1.5954,0.907
21.789,27.30,47.05,1000.00,0.000000,0.000000,0.00,0,0,-0.0219,0.1660,0.8940,0.7023,3.2672,1.5115,0.910
21.947,27.30,47.00,1000.01,0.000000,0.000000,0.00,0,0,-0.0256,0.1694,0.8867,1.1603,-1.0763,0.3740,0.903
21.953,27.30,47.00,1000.01,0.000000,0.000000,0.00,0,0,-0.0275,0.1658,0.8882,1.3969,-1.0534,0.3588,0.904
21.959,27.30,47.00,1000.01,0.000000,0.000000,0.00,0,0,-0.0332,0.1633,0.8962,1.6718,-1.1679,0.2519,0.912
21.964,27.30,47.00,1000.01,0.000000,0.000000,0.00,0,0,-0.0251,0.1626,0.8887,1.6947,-1.1603,0.0916,0.904
21.970,27.30,47.00,1000.01,0.000000,0.000000,0.00,0,0,-0.0195,0.1550,0.8921,1.7634,-1.3893,-0.1756,0.906
21.976,27.30,47.00,1000.01,0.000000,0.000000,0.00,0,0,-0.0205,0.1504,0.8865,2.1756,-1.6870,0.2290,0.899
21.982,27.30,47.00,1000.03,0.000000,0.000000,0.00,0,0,-0.0183,0.1563,0.8870,2.8397,-1.9924,-0.1221,0.901
21.988,27.30,47.00,1000.03,0.000000,0.000000,0.00,0,0,-0.0190,0.1509,0.8853,3.1832,-2.1908,-0.3359,0.898
21.994,27.30,47.00,1000.03,0.000000,0.000000,0.00,0,0,0.0097,0.1921,0.8879,-0.3053,0.6794,1.3817,0.909
22.069,27.30,47.00,1000.00,0.000000,0.000000,0.00,0,0,-0.0183,0.1548,0.8916,-0.8168,3.0916,2.4046,0.905
22.171,27.29,47.04,999.99,0.000000,0.000000,0.00,0,0,-0.0236,0.1445,0.8911,2.1908,1.7634,1.6412,0.903
22.176,27.29,47.04,999.99,0.000000,0.000000,0.00,0,0,-0.0214,0.1494,0.8860,2.5649,1.4427,1.3130,0.899
22.183,27.31,47.09,1000.02,0.000000,0.000000,0.00,0,0,-0.0156,0.1494,0.8828,2.8244,1.0992,1.3130,0.896
22.189,27.31,47.09,1000.02,0.000000,0.000000,0.00,0,0,-0.0151,0.1533,0.8901,2.8092,1.0916,1.1145,0.903
22.194,27.31,47.09,1000.02,0.000000,0.000000,0.00,0,0,-0.0141,0.1575,0.8950,2.9160,0.8550,1.3740,0.909
22.200,27.31,47.09,1000.02,0.000000,0.000000,0.00,0,0,-0.0156,0.1482,0.8782,2.6260,0.8931,0.9924,0.891
22.206,27.31,47.09,1000.02,0.000000,0.000000,0.00,0,0,-0.0131,0.1587,0.8752,2.9084,0.7710,1.1298,0.890
22.212,27.31,47.09,1000.02,0.000000,0.000000,0.00,0,0,-0.0127,0.1624,0.8823,2.9618,0.6031,1.1069,0.897
22.218,27.31,47.09,1000.02,0.000000,0.000000,0.00,0,0,-0.0139,0.1575,0.8757,2.9389,0.5802,1.0534,0.890
22.224,27.27,47.06,999.96,0.000000,0.000000,0.00,0,0,-0.0080,0.1528,0.9053,1.4962,0.2901,0.2672,0.918
22.405,27.31,47.07,999.98,0.000000,0.000000,0.00,0,0,0.0024,0.1860,0.8936,-1.8397,2.2977,-0.1832,0.913
22.411,27.31,47.08,1000.00,0.000000,0.000000,0.00,0,0,-0.0114,0.1138,0.8938,0.7099,1.9924,0.4733,0.901
22.486,27.30,47.08,1000.00,0.000000,0.000000,0.00,0,0,-0.0124,0.1248,0.8835,1.7481,1.3435,0.9389,0.892
22.492,27.30,47.08,1000.00,0.000000,0.000000,0.00,0,0,-0.0163,0.1216,0.8638,2.6489,1.2443,1.2366,0.872
22.498,27.30,47.08,1000.00,0.000000,0.000000,0.00,0,0,-0.0173,0.1238,0.8835,3.5191,0.5115,1.3511,0.892
22.504,27.30,47.08,1000.00,0.000000,0.000000,0.00,0,0,-0.0095,0.1399,0.8896,4.6565,-0.0687,2.1756,0.901
22.510,27.30,47.08,1000.00,0.000000,0.000000,0.00,0,0,-0.0134,0.1365,0.8901,5.9466,-0.5878,2.2672,0.901
22.516,27.30,47.08,1000.00,0.000000,0.000000,0.00,0,0,-0.0136,0.1516,0.8918,7.0000,-1.0763,2.7481,0.905
22.522,27.30,47.08,1000.00,0.000000,0.000000,0.00,0,0,-0.0219,0.1589,0.8853,7.6260,-1.3435,3.2519,0.900
22.528,27.30,47.08,1000.00,0.000000,0.000000,0.00,0,0,-0.0100,0.1724,0.8865,7.7481,-1.6718,3.6107,0.903
22.636,27.28,47.11,999.95,0.000000,0.000000,0.00,0,0,-0.0070,0.1504,0.8799,-2.5267,0.5267,2.9160,0.893
22.642,27.28,47.11,999.95,0.000000,0.000000,0.00,0,0,-0.0039,0.1372,0.8772,-2.3969,0.4733,2.6412,0.888
22.648,27.28,47.11,999.95,0.000000,0.000000,0.00,0,0,-0.0065,0.1306,0.8789,-1.8321,0.3588,2.0000,0.889
22.654,27.28,47.11,999.95,0.000000,0.000000,0.00,0,0,-0.0058,0.1318,0.8777,-1.1756,0.5573,1.8397,0.888
22.660,27.28,47.11,999.95,0.000000,0.000000,0.00,0,0,-0.0070,0.1272,0.8857,-0.3130,0.3206,1.3893,0.895
22.666,27.28,47.11,999.96,0.000000,0.000000,0.00,0,0,-0.0078,0.1245,0.8691,0.3206,0.4504,0.8931,0.878
22.672,27.31,47.10,1000.01,0.000000,0.000000,0.00,0,0,-0.0043,0.1345,0.8792,0.6718,0.3206,0.3969,0.889
22.678,27.31,47.10,1000.01,0.000000,0.000000,0.00,0,0,0.0026,0.1230,0.8818,1.3664,0.6183,0.0992,0.890
22.684,27.31,47.10,1000.01,0.000000,0.000000,0.00,0,0,0.0019,0.1282,0.8779,1.8702,0.7252,-0.2137,0.887
22.690,27.31,47.10,1000.01,0.000000,0.000000,0.00,0,0,0.0039,0.1321,0.8796,2.6336,0.8855,-0.6870,0.890
22.825,27.29,47.15,999.97,0.000000,0.000000,0.00,0,0,-0.0219,0.1765,0.8879,-0.1069,3.1374,-5.0840,0.906
22.831,27.29,47.15,999.97,0.000000,0.000000,0.00,0,0,-0.0285,0.1633,0.8826,-0.3282,2.3893,-5.5725,0.898
22.837,27.29,47.15,999.97,0.000000,0.000000,0.00,0,0,-0.0329,0.1628,0.8813,-0.7099,1.1679,-5.7557,0.897
22.843,27.29,47.15,999.97,0.000000,0.000000,0.00,0,0,-0.0302,0.1584,0.8835,-0.2595,-0.0305,-5.9008,0.898
22.849,27.29,47.15,999.97,0.000000,0.000000,0.00,0,0,-0.0346,0.1462,0.8875,0.6718,-1.5496,-6.2061,0.900
22.855,27.29,47.15,999.97,0.000000,0.000000,0.00,0,0,-0.0344,0.1416,0.8911,1.1374,-2.8168,-6.3817,0.903
22.861,27.29,47.15,999.97,0.000000,0.000000,0.00,0,0,-0.0349,0.1287,0.8760,1.8855,-4.1603,-6.3511,0.886
22.867,27.31,47.18,1000.01,0.000000,0.000000,0.00,0,0,-0.0417,0.1331,0.8809,2.5725,-5.4733,-6.5115,0.892
22.873,27.31,47.18,1000.01,0.000000,0.000000,0.00,0,0,-0.0383,0.1238,0.8701,3.2290,-7.0076,-6.5420,0.880
22.879,27.31,47.18,1000.01,0.000000,0.000000,0.00,0,0,-0.0383,0.1228,0.8789,4.4275,-8.2595,-6.4885,0.888
22.928,27.31,47.18,1000.01,0.000000,0.000000,0.00,0,0,-0.0026,0.1665,0.9028,6.5344,-11.4580,-6.2595,0.918
22.934,27.31,47.18,1000.01,0.000000,0.000000,0.00,0,0,0.0017,0.1794,0.8989,6.8015,-11.3206,-6.4580,0.917
22.940,27.31,47.18,1000.01,0.000000,0.000000,0.00,0,0,0.0078,0.1777,0.8940,6.6183,-10.8626,-6.5191,0.912
22.946,27.31,47.18,1000.01,0.000000,0.000000,0.00,0,0,0.0127,0.2056,0.8975,5.4504,-9.9313,-6.3511,0.921
22.952,27.31,47.18,1000.01,0.000000,0.000000,0.00,0,0,0.0153,0.2300,0.9353,2.3817,-8.7710,-6.3359,0.963
22.958,27.31,47.18,1000.01,0.000000,0.000000,0.00,0,0,0.0244,0.2183,0.8669,0.1832,-7.7328,-5.9084,0.894
22.964,27.29,47.18,1000.00,0.000000,0.000000,0.00,0,0,0.0356,0.1912,0.8789,-0.0076,-7.1298,-5.7099,0.900
22.970,27.29,47.18,1000.00,0.000000,0.000000,0.00,0,0,0.0407,0.1929,0.8977,-0.4198,-6.4885,-5.4351,0.919
22.976,27.29,47.18,1000.00,0.000000,0.000000,0.00,0,0,0.0297,0.2029,0.9092,-1.0153,-5.6260,-5.2595,0.932
22.982,27.29,47.18,1000.00,0.000000,0.000000,0.00,0,0,0.0158,0.2102,0.9050,-2.2824,-4.8321,-4.9695,0.929
23.094,27.29,47.20,999.97,0.000000,0.000000,0.00,0,0,0.0197,0.1206,0.8733,0.0839,2.6794,-0.5878,0.882
23.100,27.29,47.20,999.97,0.000000,0.000000,0.00,0,0,0.0109,0.1113,0.8813,1.2366,2.8779,-0.5344,0.888
23.106,27.29,47.20,999.97,0.000000,0.000000,0.00,0,0,0.0087,0.1167,0.8779,2.4809,2.5802,-0.3893,0.886
23.112,27.29,47.20,999.97,0.000000,0.000000,0.00,0,0,0.0127,0.1084,0.8796,3.3740,2.4198,-0.2672,0.886
23.118,27.29,47.20,999.97,0.000000,0.000000,0.00,0,0,0.0144,0.1204,0.8877,4.3053,2.2977,-0.3359,0.896
23.124,27.29,47.20,999.97,0.000000,0.000000,0.00,0,0,0.0131,0.1162,0.8914,5.5725,2.3053,-0.0916,0.899
23.130,27.29,47.20,999.97,0.000000,0.000000,0.00,0,0,0.0097,0.1292,0.8813,6.3969,2.1527,0.0763,0.891
23.136,27.29,47.20,999.97,0.000000,0.000000,0.00,0,0,0.0129,0.1372,0.8906,6.3435,2.0992,0.4275,0.901
23.142,27.29,47.20,999.97,0.000000,0.000000,0.00,0,0,0.0224,0.1406,0.8821,6.7023,2.3206,0.3511,0.894
23.148,27.29,47.20,999.97,0.000000,0.000000,0.00,0,0,0.0195,0.1543,0.8855,6.8626,2.3893,0.5878,0.899
23.229,27.32,47.23,1000.00,0.000000,0.000000,0.00,0,0,0.0144,0.1719,0.8997,-3.2290,5.2595,0.5496,0.916
23.235,27.32,47.23,1000.00,0.000000,0.000000,0.00,0,0,0.0068,0.1663,0.8818,-3.6947,4.8168,0.1908,0.897
23.241,27.32,47.23,1000.00,0.000000,0.000000,0.00,0,0,0.0136,0.1599,0.8835,-4.0840,4.4275,0.2672,0.898
23.247,27.32,47.23,1000.00,0.000000,0.000000,0.00,0,0,0.0046,0.1565,0.8833,-4.4962,4.1527,0.4198,0.897
23.253,27.32,47.23,1000.01,0.000000,0.000000,0.00,0,0,0.0083,0.1482,0.8752,-4.3969,3.7481,0.5267,0.888
23.259,27.32,47.25,1000.01,0.000000,0.000000,0.00,0,0,0.0078,0.1399,0.8892,-4.1832,3.3282,0.4122,0.900
23.265,27.32,47.25,1000.01,0.000000,0.000000,0.00,0,0,0.0014,0.1416,0.8860,-3.4733,2.8626,0.4885,0.897
23.271,27.32,47.25,1000.01,0.000000,0.000000,0.00,0,0,0.0024,0.1387,0.8818,-2.7939,2.4580,0.5725,0.893
23.277,27.32,47.25,1000.01,0.000000,0.000000,0.00,0,0,-0.0036,0.1389,0.8894,-2.2748,2.0763,0.5878,0.900
23.283,27.32,47.27,999.95,0.000000,0.000000,0.00,0,0,0.0080,0.1357,0.8774,3.0076,-0.1069,-1.0992,0.888
23.485,27.32,47.28,1000.00,0.000000,0.000000,0.00,0,0,-0.0041,0.1375,0.8853,3.3511,1.5878,-3.4809,0.896
23.491,27.32,47.28,1000.00,0.000000,0.000000,0.00,0,0,-0.0080,0.1509,0.8792,3.6718,1.4656,-4.1145,0.892
23.497,27.32,47.28,1000.00,0.000000,0.000000,0.00,0,0,-0.0139,0.1392,0.8804,4.1221,0.8931,-4.0458,0.891
23.503,27.32,47.28,1000.00,0.000000,0.000000,0.00,0,0,-0.0065,0.1497,0.8613,4.2443,0.5115,-4.2061,0.874
23.509,27.32,47.28,1000.00,0.000000,0.000000,0.00,0,0,-0.0065,0.1543,0.8657,4.2137,0.2824,-4.1450,0.879
23.516,27.32,47.28,1000.00,0.000000,0.000000,0.00,0,0,-0.0007,0.1511,0.8672,3.8397,0.1450,-4.5344,0.880
23.521,27.32,47.28,1000.00,0.000000,0.000000,0.00,0,0,0.0041,0.1570,0.8760,3.3053,-0.3359,-4.8626,0.890
23.527,27.32,47.28,1000.00,0.000000,0.000000,0.00,0,0,-0.0014,0.1638,0.8745,3.3359,-0.4198,-5.0305,0.890
23.533,27.32,47.28,1000.00,0.000000,0.000000,0.00,0,0,0.0007,0.1699,0.8896,3.4885,-0.4809,-5.0687,0.906
23.539,27.32,47.28,1000.00,0.000000,0.000000,0.00,0,0,0.0046,0.1687,0.9041,2.9924,-0.5725,-5.3359,0.920
23.625,27.32,47.36,1000.00,0.000000,0.000000,0.00,0,0,0.0175,0.1270,0.8933,-7.5725,1.3282,-10.1985,0.902
23.631,27.32,47.29,999.98,0.000000,0.000000,0.00,0,0,0.0107,0.1140,0.8696,8.1069,4.7252,-4.5573,0.877
23.705,27.32,47.29,999.98,0.000000,0.000000,0.00,0,0,0.0095,0.1208,0.8792,8.8092,4.8702,-4.1908,0.887
23.711,27.32,47.29,999.98,0.000000,0.000000,0.00,0,0,0.0085,0.1213,0.8777,9.2061,5.0458,-3.5191,0.886
23.717,27.32,47.29,999.98,0.000000,0.000000,0.00,0,0,0.0070,0.1372,0.8940,10.2290,4.8321,-3.0229,0.905
23.723,27.32,47.29,999.98,0.000000,0.000000,0.00,0,0,0.0080,0.1287,0.8967,11.6031,4.4733,-2.5573,0.906
23.729,27.32,47.29,999.98,0.000000,0.000000,0.00,0,0,-0.0002,0.1396,0.9009,12.3969,4.3664,-2.0305,0.912
23.735,27.32,47.29,999.98,0.000000,0.000000,0.00,0,0,0.0017,0.1475,0.9004,13.1985,4.2595,-1.6641,0.912
23.741,27.32,47.33,1000.01,0.000000,0.000000,0.00,0,0,-0.0070,0.1772,0.8870,17.3206,-1.3511,6.2824,0.905
23.816,27.32,47.33,1000.01,0.000000,0.000000,0.00,0,0,-0.0014,0.1870,0.8894,16.2977,-1.0992,7.1908,0.909
23.901,27.32,47.35,999.97,0.000000,0.000000,0.00,0,0,0.0036,0.1697,0.8669,3.2519,-0.1374,6.5420,0.883
23.974,27.32,47.35,999.97,0.000000,0.000000,0.00,0,0,0.0053,0.1707,0.8848,3.9084,-0.9160,5.8397,0.901
23.980,27.32,47.35,999.97,0.000000,0.000000,0.00,0,0,0.0043,0.1560,0.8811,4.6031,-1.4427,4.8244,0.895
23.986,27.32,47.35,999.97,0.000000,0.000000,0.00,0,0,0.0000,0.1565,0.8708,6.5267,-2.1908,4.3282,0.885
23.992,27.32,47.36,999.99,0.000000,0.000000,0.00,0,0,0.0295,0.2209,0.8857,2.5725,2.8702,-1.4122,0.913
24.066,27.32,47.36,999.99,0.000000,0.000000,0.00,0,0,0.0314,0.2139,0.8833,1.4885,2.7405,-1.6947,0.909
24.072,27.31,47.36,1000.00,0.000000,0.000000,0.00,0,0,0.0222,0.2117,0.8662,8.4580,7.3282,-5.7252,0.892
24.215,27.31,47.36,1000.00,0.000000,0.000000,0.00,0,0,0.0188,0.2019,0.8594,7.5802,7.8015,-5.8244,0.883
24.221,27.31,47.36,1000.00,0.000000,0.000000,0.00,0,0,0.0239,0.2144,0.8643,7.0763,7.8397,-5.7863,0.891
24.227,27.31,47.36,1000.00,0.000000,0.000000,0.00,0,0,0.0219,0.2029,0.8635,6.7710,7.8244,-5.9695,0.887
24.516,27.32,47.38,1000.00,0.000000,0.000000,0.00,0,0,0.0300,0.2329,0.8723,0.0076,2.0687,7.3588,0.903
24.522,27.32,47.38,1000.00,0.000000,0.000000,0.00,0,0,0.0297,0.2312,0.8723,0.2061,2.1756,6.7557,0.903
24.528,27.32,47.38,999.99,0.000000,0.000000,0.00,0,0,0.0341,0.2300,0.8782,0.4351,2.1832,6.0076,0.908
24.534,27.32,47.38,1000.00,0.000000,0.000000,0.00,0,0,0.0061,0.2178,0.8796,-2.8626,0.3893,-7.7710,0.906
24.678,27.32,47.38,1000.00,0.000000,0.000000,0.00,0,0,0.0095,0.2205,0.8899,-3.0534,0.5038,-7.9771,0.917
24.684,27.32,47.39,999.98,0.000000,0.000000,0.00,0,0,0.0136,0.1912,0.8765,2.0992,2.7710,-4.2443,0.897
24.758,27.32,47.39,999.98,0.000000,0.000000,0.00,0,0,0.0134,0.1880,0.8740,2.0229,3.1832,-3.3435,0.894
24.764,27.32,47.39,999.98,0.000000,0.000000,0.00,0,0,0.0168,0.1934,0.8701,1.9771,3.4733,-2.9542,0.892
24.770,27.32,47.39,999.98,0.000000,0.000000,0.00,0,0,0.0119,0.2009,0.8706,1.8092,3.9237,-2.4885,0.894
24.776,27.32,47.39,999.98,0.000000,0.000000,0.00,0,0,0.0178,0.2068,0.8733,1.7252,3.9466,-1.9389,0.898
24.926,27.33,47.38,1000.00,0.000000,0.000000,0.00,0,0,-0.0100,0.2180,0.8855,-1.2748,0.5878,-2.5115,0.912
24.932,27.33,47.38,1000.00,0.000000,0.000000,0.00,0,0,-0.0080,0.2192,0.8711,-1.8931,0.5878,-2.6794,0.898
24.938,27.33,47.38,1000.00,0.000000,0.000000,0.00,0,0,-0.0097,0.2200,0.8716,-2.2977,0.5191,-3.0611,0.899
24.944,27.33,47.38,1000.00,0.000000,0.000000,0.00,0,0,-0.0061,0.2156,0.8708,-3.0153,0.8855,-3.1450,0.897
24.950,27.33,47.38,1000.00,0.000000,0.000000,0.00,0,0,-0.0090,0.2185,0.8818,-3.4962,0.8321,-3.4198,0.909
24.956,27.33,47.38,1000.00,0.000000,0.000000,0.00,0,0,-0.0036,0.2097,0.8772,-4.0229,1.0000,-3.5496,0.902
24.962,27.33,47.38,999.98,0.000000,0.000000,0.00,0,0,0.0085,0.1694,0.8765,3.4962,1.5115,-2.6183,0.893
25.037,27.30,47.38,999.98,0.000000,0.000000,0.00,0,0,0.0134,0.1699,0.8831,3.6641,1.7634,-2.2061,0.899
25.043,27.30,47.38,999.98,0.000000,0.000000,0.00,0,0,0.0063,0.1787,0.8662,3.8244,2.1450,-1.5496,0.884
25.049,27.30,47.38,999.98,0.000000,0.000000,0.00,0,0,0.0073,0.1770,0.8774,3.5496,2.7099,-1.0534,0.895
25.144,27.32,47.38,999.98,0.000000,0.000000,0.00,0,0,-0.0139,0.2144,0.8826,4.2061,3.7328,2.2214,0.908
25.150,27.32,47.38,999.98,0.000000,0.000000,0.00,0,0,-0.0017,0.2090,0.8862,4.5267,3.4733,1.9695,0.911
25.156,27.32,47.38,999.98,0.000000,0.000000,0.00,0,0,-0.0017,0.2097,0.8838,5.1985,3.5649,1.8931,0.908
25.161,27.32,47.38,1000.00,0.000000,0.000000,0.00,0,0,-0.0090,0.2004,0.8906,0.2748,0.7557,-0.6336,0.913
25.236,27.33,47.38,1000.00,0.000000,0.000000,0.00,0,0,-0.0061,0.2009,0.8826,-0.2519,0.6489,-0.9618,0.905
25.243,27.33,47.38,1000.00,0.000000,0.000000,0.00,0,0,-0.0012,0.1836,0.8772,2.7557,0.0534,-2.6794,0.896
25.317,27.32,47.37,999.99,0.000000,0.000000,0.00,0,0,-0.0058,0.1775,0.8765,3.6565,0.5649,-2.4962,0.894
25.323,27.32,47.37,999.99,0.000000,0.000000,0.00,0,0,-0.0036,0.1697,0.8777,4.3282,0.9542,-2.3511,0.894
25.329,27.32,47.37,999.99,0.000000,0.000000,0.00,0,0,0.0012,0.1799,0.8757,4.8244,1.3206,-2.3511,0.894
25.335,27.32,47.37,999.99,0.000000,0.000000,0.00,0,0,-0.0043,0.1785,0.8721,5.2595,1.7710,-2.1069,0.890
25.477,27.31,47.37,999.97,0.000000,0.000000,0.00,0,0,-0.0148,0.2144,0.8809,2.6183,2.2595,-5.7863,0.907
25.483,27.31,47.37,999.97,0.000000,0.000000,0.00,0,0,-0.0178,0.2175,0.8816,2.1679,2.0382,-5.9924,0.908
25.489,27.31,47.37,999.97,0.000000,0.000000,0.00,0,0,-0.0173,0.2173,0.8855,1.8626,2.0992,-6.0534,0.912
25.495,27.31,47.37,999.97,0.000000,0.000000,0.00,0,0,-0.0156,0.2139,0.8884,1.4733,1.9771,-6.2595,0.914
25.501,27.31,47.37,1000.03,0.000000,0.000000,0.00,0,0,-0.0105,0.2134,0.8843,0.8550,1.7328,-6.4580,0.910
25.507,27.33,47.42,1000.03,0.000000,0.000000,0.00,0,0,-0.0153,0.2104,0.8806,0.4809,1.7557,-6.3740,0.906
25.513,27.33,47.42,1000.03,0.000000,0.000000,0.00,0,0,-0.0124,0.2051,0.8796,0.1679,1.3588,-6.3206,0.903
25.519,27.33,47.42,1000.03,0.000000,0.000000,0.00,0,0,-0.0136,0.2073,0.8796,0.2443,1.0840,-6.4504,0.904
25.525,27.33,47.42,1000.03,0.000000,0.000000,0.00,0,0,-0.0058,0.2104,0.8728,0.2824,1.0076,-6.3435,0.898
25.531,27.33,47.42,1000.03,0.000000,0.000000,0.00,0,0,-0.0075,0.2046,0.8760,0.5878,0.7863,-6.2824,0.900
25.670,27.30,47.37,999.97,0.000000,0.000000,0.00,0,0,-0.0156,0.1997,0.8694,3.6412,2.2519,0.2595,0.892
25.676,27.30,47.37,999.97,0.000000,0.000000,0.00,0,0,-0.0178,0.1951,0.8806,3.6031,2.2290,0.5496,0.902
25.682,27.30,47.37,999.97,0.000000,0.000000,0.00,0,0,-0.0180,0.1887,0.8665,3.8855,2.0076,0.6489,0.887
25.688,27.30,47.37,999.97,0.000000,0.000000,0.00,0,0,-0.0212,0.1897,0.8669,4.2672,1.6794,0.8473,0.888
25.694,27.30,47.37,999.97,0.000000,0.000000,0.00,0,0,-0.0153,0.1924,0.8582,4.6336,1.3664,0.8550,0.880
25.700,27.34,47.37,1000.00,0.000000,0.000000,0.00,0,0,-0.0178,0.1914,0.8645,5.1832,1.2595,1.0763,0.886
25.706,27.34,47.37,1000.00,0.000000,0.000000,0.00,0,0,-0.0227,0.1912,0.8660,5.6718,1.1069,0.9771,0.887
25.712,27.34,47.37,1000.00,0.000000,0.000000,0.00,0,0,-0.0214,0.1997,0.8774,5.7481,1.0382,1.1603,0.900
25.718,27.34,47.37,1000.00,0.000000,0.000000,0.00,0,0,-0.0144,0.1992,0.8713,6.0382,1.2061,1.3893,0.894
25.725,27.34,47.36,999.98,0.000000,0.000000,0.00,0,0,-0.0283,0.2185,0.8843,3.4198,3.4122,-3.2061,0.911
25.996,27.34,47.36,1000.02,0.000000,0.000000,0.00,0,0,-0.0119,0.2361,0.8845,2.6031,3.4046,1.5038,0.916
26.002,27.34,47.36,1000.02,0.000000,0.000000,0.00,0,0,-0.0173,0.2385,0.8779,2.0153,3.7252,1.7863,0.910
26.008,27.34,47.36,1000.02,0.000000,0.000000,0.00,0,0,-0.0148,0.2383,0.8777,1.4275,3.8626,2.0687,0.910
26.014,27.34,47.36,1000.02,0.000000,0.000000,0.00,0,0,-0.0202,0.2336,0.8826,0.9847,3.9618,2.3359,0.913
26.020,27.34,47.36,1000.02,0.000000,0.000000,0.00,0,0,-0.0127,0.2375,0.8806,0.6947,3.9542,2.3664,0.912
26.026,27.34,47.36,1000.02,0.000000,0.000000,0.00,0,0,-0.0244,0.2314,0.8770,0.6641,3.6260,2.5878,0.907
26.032,27.34,47.36,1000.02,0.000000,0.000000,0.00,0,0,-0.0227,0.2283,0.8730,0.5191,3.7939,2.5191,0.903
26.038,27.34,47.36,1000.02,0.000000,0.000000,0.00,0,0,-0.0261,0.2249,0.8716,0.6870,3.6031,2.7710,0.900
26.044,27.34,47.36,1000.02,0.000000,0.000000,0.00,0,0,-0.0293,0.2192,0.8772,0.6107,3.4504,2.7557,0.905
26.050,27.34,47.36,1000.02,0.000000,0.000000,0.00,0,0,-0.0275,0.2065,0.8755,0.5649,3.1221,2.9313,0.900
26.266,27.34,47.36,1000.01,0.000000,0.000000,0.00,0,0,-0.0173,0.2329,0.8740,2.3435,1.8015,1.2595,0.905
26.272,27.34,47.36,1000.01,0.000000,0.000000,0.00,0,0,-0.0210,0.2292,0.8816,1.8931,1.9160,1.0153,0.911
26.278,27.34,47.36,1000.01,0.000000,0.000000,0.00,0,0,-0.0156,0.2249,0.8706,1.7023,2.0992,1.2366,0.899
26.284,27.34,47.38,1000.00,0.000000,0.000000,0.00,0,0,-0.0119,0.2329,0.8733,1.1832,2.1832,1.0687,0.904
26.290,27.34,47.38,1000.00,0.000000,0.000000,0.00,0,0,-0.0170,0.2336,0.8772,1.0840,2.2366,0.9008,0.908
26.296,27.34,47.38,1000.00,0.000000,0.000000,0.00,0,0,-0.0185,0.2227,0.8694,0.8473,2.0840,0.9771,0.898
26.302,27.34,47.38,1000.00,0.000000,0.000000,0.00,0,0,-0.0207,0.2222,0.8635,3.6718,1.2137,0.8244,0.892
26.376,27.34,47.38,1000.00,0.000000,0.000000,0.00,0,0,-0.0144,0.2288,0.8647,3.8397,1.3664,0.5115,0.895
26.382,27.34,47.34,999.98,0.000000,0.000000,0.00,0,0,-0.0144,0.2288,0.8804,3.6107,1.5802,0.5420,0.910
26.388,27.33,47.34,999.98,0.000000,0.000000,0.00,0,0,-0.0153,0.2327,0.8779,3.4122,1.7023,0.5878,0.908
26.431,27.33,47.34,999.98,0.000000,0.000000,0.00,0,0,-0.0190,0.2341,0.8638,2.3206,2.0611,0.7863,0.895
26.437,27.33,47.34,999.98,0.000000,0.000000,0.00,0,0,-0.0161,0.2290,0.8823,2.2061,2.0153,0.6794,0.912
26.443,27.33,47.34,999.98,0.000000,0.000000,0.00,0,0,-0.0170,0.2285,0.8667,2.4504,2.2595,0.8473,0.896
26.449,27.33,47.34,999.98,0.000000,0.000000,0.00,0,0,-0.0202,0.2341,0.8716,2.3282,2.3969,0.8015,0.903
26.455,27.33,47.34,999.98,0.000000,0.000000,0.00,0,0,-0.0173,0.2332,0.8755,2.0382,2.6260,0.5573,0.906
26.461,27.33,47.34,999.98,0.000000,0.000000,0.00,0,0,-0.0178,0.2324,0.8767,1.6260,2.7557,0.7023,0.907
26.467,27.33,47.34,999.98,0.000000,0.000000,0.00,0,0,-0.0153,0.2380,0.8772,1.3435,3.1527,0.7863,0.909
26.473,27.33,47.34,999.98,0.000000,0.000000,0.00,0,0,-0.0207,0.2302,0.8762,1.2366,3.2519,0.8168,0.906
26.479,27.33,47.34,999.98,0.000000,0.000000,0.00,0,0,-0.0183,0.2285,0.8665,1.2595,3.2290,0.9466,0.896
26.485,27.34,47.40,999.98,0.000000,0.000000,0.00,0,0,-0.0224,0.2205,0.8760,3.5496,1.5344,-0.0458,0.904
26.666,27.35,47.37,1000.02,0.000000,0.000000,0.00,0,0,-0.0153,0.2346,0.8638,3.1069,2.4733,0.9389,0.895
26.672,27.35,47.37,1000.01,0.000000,0.000000,0.00,0,0,-0.0280,0.2300,0.8772,3.3130,2.5191,0.4046,0.907
26.745,27.35,47.37,1000.01,0.000000,0.000000,0.00,0,0,-0.0332,0.2266,0.8735,3.5496,2.3817,0.2290,0.903
26.751,27.35,47.37,1000.01,0.000000,0.000000,0.00,0,0,-0.0258,0.2278,0.8684,3.7328,2.1985,0.5496,0.898
26.757,27.35,47.37,1000.01,0.000000,0.000000,0.00,0,0,-0.0234,0.2268,0.8870,3.9084,2.2748,0.1221,0.916
26.763,27.35,47.37,1000.01,0.000000,0.000000,0.00,0,0,-0.0307,0.2297,0.8718,3.7786,1.8168,0.1221,0.902
26.769,27.35,47.37,1000.01,0.000000,0.000000,0.00,0,0,-0.0290,0.2317,0.8677,3.7023,1.6718,-0.0381,0.899
26.775,27.35,47.37,1000.02,0.000000,0.000000,0.00,0,0,-0.0234,0.2275,0.8801,3.6183,1.6336,-0.1908,0.909
26.781,27.35,47.37,1000.02,0.000000,0.000000,0.00,0,0,-0.0207,0.2493,0.8750,0.9237,1.8855,-1.0458,0.910
26.856,27.35,47.37,1000.02,0.000000,0.000000,0.00,0,0,-0.0205,0.2476,0.8774,0.6031,2.0763,-1.3359,0.912
26.891,27.34,47.38,999.99,0.000000,0.000000,0.00,0,0,-0.0227,0.2346,0.8767,-0.0458,2.9466,-2.1145,0.908
26.897,27.34,47.38,999.99,0.000000,0.000000,0.00,0,0,-0.0178,0.2275,0.8784,-0.1527,3.1069,-2.3282,0.908
26.903,27.34,47.38,999.99,0.000000,0.000000,0.00,0,0,-0.0278,0.2229,0.8843,0.1221,3.0840,-2.6718,0.912
26.909,27.34,47.38,999.99,0.000000,0.000000,0.00,0,0,-0.0246,0.2192,0.8645,0.4275,2.9389,-2.7557,0.892
26.915,27.34,47.38,999.99,0.000000,0.000000,0.00,0,0,-0.0249,0.2195,0.8750,0.5573,3.0153,-3.0229,0.902
26.921,27.34,47.38,999.99,0.000000,0.000000,0.00,0,0,-0.0202,0.2202,0.8672,0.9008,2.8092,-3.1908,0.895
26.926,27.34,47.38,999.99,0.000000,0.000000,0.00,0,0,-0.0239,0.2188,0.8743,1.4504,2.9466,-3.3130,0.902
26.932,27.34,47.38,999.99,0.000000,0.000000,0.00,0,0,-0.0231,0.2170,0.8601,1.7328,2.8550,-3.5267,0.887
26.938,27.34,47.38,999.99,0.000000,0.000000,0.00,0,0,-0.0239,0.2117,0.8601,2.4580,2.9466,-3.5573,0.886
26.945,27.34,47.38,999.99,0.000000,0.000000,0.00,0,0,-0.0202,0.2078,0.8650,2.7481,2.9618,-3.6489,0.890
27.096,27.35,47.37,1000.00,0.000000,0.000000,0.00,0,0,-0.0366,0.2412,0.8677,2.0305,4.2901,5.3740,0.901
27.102,27.35,47.37,1000.00,0.000000,0.000000,0.00,0,0,-0.0314,0.2439,0.8665,2.1908,4.1679,5.9695,0.901
27.108,27.35,47.37,1000.00,0.000000,0.000000,0.00,0,0,-0.0317,0.2429,0.8713,2.0840,3.7634,6.3435,0.905
27.114,27.35,47.37,1000.00,0.000000,0.000000,0.00,0,0,-0.0344,0.2397,0.8694,2.0840,3.4656,6.4885,0.902
27.120,27.35,47.37,1000.00,0.000000,0.000000,0.00,0,0,-0.0410,0.2371,0.8672,2.0000,3.4885,6.8779,0.900
27.126,27.35,47.37,1000.00,0.000000,0.000000,0.00,0,0,-0.0471,0.2395,0.8621,2.0000,3.2061,6.9466,0.896
27.132,27.35,47.37,1000.00,0.000000,0.000000,0.00,0,0,-0.0373,0.2373,0.8628,1.6947,2.9237,7.0916,0.896
27.138,27.35,47.37,1000.00,0.000000,0.000000,0.00,0,0,-0.0434,0.2424,0.8669,1.5802,2.7634,7.1985,0.901
27.144,27.35,47.37,1000.00,0.000000,0.000000,0.00,0,0,-0.0419,0.2427,0.8633,1.5649,2.4656,6.9618,0.898
27.150,27.35,47.37,1000.00,0.000000,0.000000,0.00,0,0,-0.0422,0.2358,0.8655,1.4962,1.9695,6.8092,0.898
27.286,27.36,47.38,999.99,0.000000,0.000000,0.00,0,0,-0.0207,0.2231,0.8606,-0.4275,2.9924,-2.7252,0.889
27.292,27.36,47.38,999.99,0.000000,0.000000,0.00,0,0,-0.0219,0.2183,0.8667,-0.2824,3.2366,-3.3817,0.894
27.298,27.36,47.38,999.99,0.000000,0.000000,0.00,0,0,-0.0190,0.2151,0.8699,0.0229,3.5496,-3.5496,0.896
27.304,27.36,47.38,999.99,0.000000,0.000000,0.00,0,0,-0.0131,0.2202,0.8655,0.8626,3.7786,-3.8015,0.893
27.310,27.36,47.38,999.99,0.000000,0.000000,0.00,0,0,-0.0200,0.2188,0.8772,1.3359,4.1298,-4.2290,0.904
27.316,27.36,47.38,999.99,0.000000,0.000000,0.00,0,0,-0.0256,0.2166,0.8833,2.0763,4.3130,-4.4809,0.910
27.322,27.36,47.38,999.99,0.000000,0.000000,0.00,0,0,-0.0236,0.2209,0.8757,2.5344,4.4046,-4.6183,0.903
27.328,27.36,47.38,999.99,0.000000,0.000000,0.00,0,0,-0.0273,0.2148,0.8765,3.1450,4.4427,-4.9542,0.903
27.334,27.36,47.38,999.99,0.000000,0.000000,0.00,0,0,-0.0366,0.2209,0.8682,3.5267,4.5496,-5.2366,0.897
27.340,27.36,47.38,999.99,0.000000,0.000000,0.00,0,0,-0.0310,0.2190,0.8604,3.6794,4.6336,-5.4427,0.888
27.455,27.34,47.38,999.94,0.000000,0.000000,0.00,0,0,-0.0358,0.2429,0.8669,4.0305,4.5725,-3.4198,0.901
27.461,27.36,47.39,999.99,0.000000,0.000000,0.00,0,0,-0.0405,0.2461,0.8740,3.6565,4.6031,-3.0153,0.909
27.467,27.36,47.39,999.99,0.000000,0.000000,0.00,0,0,-0.0478,0.2534,0.8713,3.5267,4.5649,-2.8244,0.909
27.473,27.36,47.39,999.99,0.000000,0.000000,0.00,0,0,-0.0371,0.2544,0.8689,3.4885,4.6031,-2.5496,0.906
27.479,27.36,47.39,999.99,0.000000,0.000000,0.00,0,0,-0.0388,0.2542,0.8726,3.2519,4.5267,-2.5038,0.910
27.485,27.36,47.39,999.99,0.000000,0.000000,0.00,0,0,-0.0351,0.2542,0.8733,2.7634,4.4656,-2.1679,0.910
27.491,27.36,47.39,999.99,0.000000,0.000000,0.00,0,0,-0.0422,0.2583,0.8596,2.5420,4.5191,-1.7634,0.899
27.497,27.36,47.39,999.99,0.000000,0.000000,0.00,0,0,-0.0439,0.2522,0.8767,2.1298,4.6565,-1.3969,0.913
27.502,27.36,47.39,999.99,0.000000,0.000000,0.00,0,0,-0.0456,0.2573,0.8789,1.3817,4.5954,-1.2748,0.917
27.508,27.36,47.39,999.99,0.000000,0.000000,0.00,0,0,-0.0415,0.2529,0.8708,1.0687,4.5344,-0.9008,0.908
27.588,27.33,47.42,999.95,0.000000,0.000000,0.00,0,0,-0.0485,0.2358,0.8682,1.5038,4.2901,-0.6641,0.901
27.594,27.33,47.42,999.95,0.000000,0.000000,0.00,0,0,-0.0439,0.2336,0.8596,1.4809,4.5649,-0.8321,0.892
27.600,27.33,47.42,999.95,0.000000,0.000000,0.00,0,0,-0.0488,0.2424,0.8628,1.7557,4.4504,-1.0687,0.898
27.606,27.33,47.42,999.95,0.000000,0.000000,0.00,0,0,-0.0478,0.2395,0.8694,2.2366,4.6718,-1.1908,0.903
27.612,27.33,47.42,999.95,0.000000,0.000000,0.00,0,0,-0.0483,0.2422,0.8596,2.2061,4.9237,-1.0916,0.894
27.618,27.33,47.42,999.95,0.000000,0.000000,0.00,0,0,-0.0481,0.2375,0.8740,2.4427,5.1450,-1.4885,0.907
27.624,27.33,47.42,999.95,0.000000,0.000000,0.00,0,0,-0.0468,0.2415,0.8691,2.6870,5.6718,-1.2901,0.903
27.630,27.33,47.42,999.95,0.000000,0.000000,0.00,0,0,-0.0481,0.2449,0.8630,2.4733,5.7939,-1.2748,0.898
27.636,27.33,47.42,999.95,0.000000,0.000000,0.00,0,0,-0.0441,0.2434,0.8701,2.5954,6.1298,-1.1756,0.905
27.642,27.33,47.42,999.95,0.000000,0.000000,0.00,0,0,-0.0512,0.2395,0.8662,2.0763,6.3740,-1.2443,0.900
27.755,27.36,47.44,999.98,0.000000,0.000000,0.00,0,0,-0.0561,0.2412,0.8787,1.2519,2.9313,0.9389,0.913
27.761,27.36,47.44,999.98,0.000000,0.000000,0.00,0,0,-0.0659,0.2429,0.8704,0.9847,2.7863,1.1298,0.906
27.767,27.36,47.44,999.98,0.000000,0.000000,0.00,0,0,-0.0622,0.2373,0.8704,1.2748,2.8092,1.1374,0.904
27.773,27.36,47.44,999.98,0.000000,0.000000,0.00,0,0,-0.0710,0.2412,0.8621,1.6183,2.8626,1.3511,0.898
27.779,27.36,47.44,999.98,0.000000,0.000000,0.00,0,0,-0.0690,0.2383,0.8740,1.8397,2.9771,1.4580,0.909
27.785,27.36,47.44,999.98,0.000000,0.000000,0.00,0,0,-0.0642,0.2346,0.8647,2.0916,2.8855,1.5191,0.898
27.791,27.36,47.44,999.98,0.000000,0.000000,0.00,0,0,-0.0683,0.2363,0.8660,2.2366,2.9466,1.6412,0.900
27.797,27.36,47.44,999.98,0.000000,0.000000,0.00,0,0,-0.0661,0.2317,0.8735,2.4198,2.8855,1.8702,0.906
27.803,27.36,47.44,999.98,0.000000,0.000000,0.00,0,0,-0.0681,0.2300,0.8767,3.1985,2.7023,2.1298,0.909
27.809,27.36,47.44,999.98,0.000000,0.000000,0.00,0,0,-0.0664,0.2273,0.8716,3.7557,2.2901,2.5115,0.903
27.946,27.33,47.47,999.98,0.000000,0.000000,0.00,0,0,-0.0539,0.2727,0.8965,-2.7710,-1.8702,9.5344,0.939
27.952,27.36,47.47,999.98,0.000000,0.000000,0.00,0,0,-0.0515,0.2788,0.8850,-3.5344,-1.9160,10.1679,0.929
27.958,27.36,47.47,999.98,0.000000,0.000000,0.00,0,0,-0.0512,0.2957,0.8862,-4.8092,-1.5954,10.6565,0.936
27.964,27.36,47.47,999.98,0.000000,0.000000,0.00,0,0,-0.0485,0.2957,0.8794,-6.1756,-1.4962,11.2824,0.929
27.970,27.36,47.47,999.98,0.000000,0.000000,0.00,0,0,-0.0471,0.3000,0.8816,-7.5954,-1.3969,11.8473,0.932
27.976,27.36,47.47,999.98,0.000000,0.000000,0.00,0,0,-0.0446,0.2998,0.8647,-8.8550,-1.3969,11.9847,0.916
27.982,27.36,47.47,999.98,0.000000,0.000000,0.00,0,0,-0.0415,0.2947,0.8591,-9.4504,-1.5420,12.2901,0.909
27.988,27.36,47.47,999.98,0.000000,0.000000,0.00,0,0,-0.0363,0.2925,0.8765,-10.0763,-1.7939,12.4122,0.925
27.994,27.36,47.47,999.98,0.000000,0.000000,0.00,0,0,-0.0366,0.2871,0.8857,-10.1756,-2.4351,12.4809,0.932
28.000,27.36,47.47,999.98,0.000000,0.000000,0.00,0,0,-0.0410,0.2805,0.8943,-10.2748,-2.6870,12.4427,0.938
28.144,27.36,47.49,999.99,0.000000,0.000000,0.00,0,0,0.0244,0.2141,0.8699,-2.2519,-3.0534,-7.2672,0.896
28.151,27.36,47.49,999.99,0.000000,0.000000,0.00,0,0,0.0241,0.2161,0.8730,-1.8473,-2.4885,-7.9008,0.900
28.157,27.36,47.49,999.99,0.000000,0.000000,0.00,0,0,0.0310,0.2205,0.8787,-1.7176,-1.7328,-8.4885,0.906
28.163,27.36,47.49,999.99,0.000000,0.000000,0.00,0,0,0.0341,0.2207,0.8662,-1.4351,-0.7863,-8.8168,0.895
28.169,27.36,47.49,999.99,0.000000,0.000000,0.00,0,0,0.0312,0.2297,0.8652,-1.3206,0.3511,-9.2290,0.896
28.175,27.36,47.49,999.99,0.000000,0.000000,0.00,0,0,0.0329,0.2329,0.8723,-1.3511,1.3053,-9.2977,0.903
28.181,27.36,47.49,999.99,0.000000,0.000000,0.00,0,0,0.0236,0.2290,0.8691,-1.5725,2.7023,-9.6183,0.899
28.187,27.36,47.49,999.99,0.000000,0.000000,0.00,0,0,0.0349,0.2375,0.8767,-1.2519,3.7557,-10.0916,0.909
28.193,27.36,47.49,999.99,0.000000,0.000000,0.00,0,0,0.0329,0.2302,0.8594,-1.4198,4.8626,-10.4580,0.890
28.198,27.36,47.49,999.99,0.000000,0.000000,0.00,0,0,0.0388,0.2358,0.8611,-1.0611,5.7405,-10.5954,0.894
28.277,27.33,47.51,999.93,0.000000,0.000000,0.00,0,0,-0.0056,0.2095,0.8740,-7.9924,12.0076,-25.0992,0.899
28.283,27.33,47.51,999.93,0.000000,0.000000,0.00,0,0,0.0007,0.2029,0.8662,-9.2595,13.1527,-25.9237,0.890
28.289,27.33,47.51,999.93,0.000000,0.000000,0.00,0,0,0.0024,0.1868,0.8760,-10.2748,14.0687,-26.8931,0.896
28.295,27.33,47.51,999.93,0.000000,0.000000,0.00,0,0,-0.0002,0.1770,0.8799,-11.1908,15.3511,-27.7328,0.898
28.301,27.33,47.51,999.93,0.000000,0.000000,0.00,0,0,0.0002,0.1626,0.8838,-11.8092,16.2290,-28.5802,0.899
28.307,27.33,47.51,999.93,0.000000,0.000000,0.00,0,0,0.0021,0.1458,0.8889,-12.2901,16.8626,-29.9542,0.901
28.313,27.33,47.51,999.93,0.000000,0.000000,0.00,0,0,-0.0056,0.1270,0.8828,-11.3282,17.1832,-31.3664,0.892
28.319,27.33,47.51,999.93,0.000000,0.000000,0.00,0,0,-0.0043,0.1213,0.8743,-9.6565,17.5496,-32.6412,0.883
28.325,27.33,47.51,999.93,0.000000,0.000000,0.00,0,0,-0.0009,0.1165,0.8691,-7.9847,17.7481,-34.0153,0.877
28.331,27.33,47.51,999.97,0.000000,0.000000,0.00,0,0,-0.1045,0.1880,0.9153,6.7939,22.1145,-37.4962,0.940
28.516,27.37,47.55,999.98,0.000000,0.000000,0.00,0,0,-0.2329,0.1716,0.8809,-3.1145,13.2595,-9.0687,0.927
28.521,27.37,47.58,999.98,0.000000,0.000000,0.00,0,0,-0.1541,0.1201,0.8171,-0.4733,-16.8473,5.8015,0.840
28.595,27.37,47.58,999.98,0.000000,0.000000,0.00,0,0,-0.1494,0.1375,0.8079,0.5954,-17.5344,7.0840,0.833
28.601,27.37,47.58,999.98,0.000000,0.000000,0.00,0,0,-0.1377,0.1360,0.8083,1.0992,-17.7786,8.6031,0.831
28.607,27.37,47.58,999.98,0.000000,0.000000,0.00,0,0,-0.1362,0.1326,0.8254,0.9313,-17.4427,9.3282,0.847
28.613,27.37,47.58,999.98,0.000000,0.000000,0.00,0,0,-0.1265,0.1418,0.8137,1.2290,-17.0611,10.9008,0.836
28.619,27.37,47.58,999.98,0.000000,0.000000,0.00,0,0,-0.1365,0.1423,0.8289,1.5496,-16.2595,12.0076,0.852
28.625,27.37,47.58,999.98,0.000000,0.000000,0.00,0,0,-0.1350,0.1396,0.8198,1.7481,-15.3969,13.2061,0.843
28.631,27.37,47.58,999.98,0.000000,0.000000,0.00,0,0,-0.1118,0.1611,0.8748,4.8244,-0.0763,22.0611,0.896
28.707,27.37,47.58,999.98,0.000000,0.000000,0.00,0,0,-0.0971,0.1699,0.8657,4.8702,0.4504,21.8702,0.888
28.778,27.37,47.63,999.96,0.000000,0.000000,0.00,0,0,-0.1035,0.2117,0.8740,-7.6794,1.5878,11.6565,0.905
28.784,27.37,47.63,999.96,0.000000,0.000000,0.00,0,0,-0.1057,0.2212,0.8794,-8.5496,1.4962,10.7710,0.913
28.790,27.37,47.63,999.96,0.000000,0.000000,0.00,0,0,-0.1042,0.2178,0.8694,-9.4351,1.3435,9.9084,0.902
28.796,27.37,47.63,999.96,0.000000,0.000000,0.00,0,0,-0.1042,0.2136,0.8931,-10.3435,0.9771,9.2519,0.924
28.802,27.37,47.63,999.96,0.000000,0.000000,0.00,0,0,-0.1106,0.2129,0.8821,-11.4504,0.3969,8.6870,0.914
28.808,27.37,47.63,999.96,0.000000,0.000000,0.00,0,0,-0.1138,0.2112,0.8953,-12.6718,0.4198,7.7939,0.927
28.815,27.37,47.66,999.97,0.000000,0.000000,0.00,0,0,-0.1536,0.1123,0.8955,-26.9237,-1.5649,4.7176,0.915
28.889,27.37,47.66,999.97,0.000000,0.000000,0.00,0,0,-0.1504,0.1040,0.8958,-25.5267,-1.9313,4.5267,0.914
28.895,27.37,47.64,999.98,0.000000,0.000000,0.00,0,0,-0.1204,0.0861,0.8784,-4.9542,0.6489,9.8931,0.891
28.970,27.37,47.64,999.98,0.000000,0.000000,0.00,0,0,-0.1213,0.0979,0.8845,-5.0992,1.2061,10.7176,0.898
29.141,27.38,47.69,999.99,0.000000,0.000000,0.00,0,0,-0.1084,0.0820,0.8879,-6.8015,-11.0534,14.7710,0.898
29.147,27.38,47.69,999.99,0.000000,0.000000,0.00,0,0,-0.1157,0.0822,0.8872,-6.2824,-11.5496,14.4427,0.898
29.153,27.38,47.69,999.99,0.000000,0.000000,0.00,0,0,-0.1118,0.0810,0.8931,-5.8473,-11.7557,13.9160,0.904
29.159,27.38,47.69,999.99,0.000000,0.000000,0.00,0,0,-0.1104,0.0764,0.8967,-5.3130,-11.8702,13.3435,0.907
29.165,27.38,47.69,999.99,0.000000,0.000000,0.00,0,0,-0.1052,0.0825,0.8965,-4.9542,-12.1221,12.8321,0.906
29.171,27.38,47.69,999.99,0.000000,0.000000,0.00,0,0,-0.0988,0.0822,0.9004,-4.8931,-12.3359,12.5878,0.910
29.177,27.38,47.69,999.99,0.000000,0.000000,0.00,0,0,-0.0979,0.0795,0.8936,-4.8092,-12.0305,12.1603,0.902
29.183,27.38,47.69,999.99,0.000000,0.000000,0.00,0,0,-0.0939,0.0793,0.8948,-4.5649,-11.9542,11.8321,0.903
29.189,27.38,47.69,999.99,0.000000,0.000000,0.00,0,0,-0.0842,0.0825,0.9023,-4.7634,-11.5649,11.7863,0.910
29.195,27.38,47.69,999.99,0.000000,0.000000,0.00,0,0,-0.0781,0.0827,0.9006,-4.8321,-11.3588,11.5802,0.908
29.304,27.37,47.68,999.95,0.000000,0.000000,0.00,0,0,-0.0356,0.0449,0.8906,-2.6336,-5.3511,8.4275,0.892
29.310,27.37,47.68,999.95,0.000000,0.000000,0.00,0,0,-0.0358,0.0456,0.8948,-3.0992,-5.4656,8.3206,0.897
29.316,27.38,47.75,999.98,0.000000,0.000000,0.00,0,0,-0.0363,0.0388,0.8892,-3.4046,-5.3130,8.0763,0.891
29.322,27.38,47.75,999.97,0.000000,0.000000,0.00,0,0,-0.0715,0.0422,0.9026,-3.3969,0.6336,3.6641,0.906
29.465,27.37,47.74,999.96,0.000000,0.000000,0.00,0,0,-0.0725,0.0356,0.8931,-3.4275,0.7939,3.3588,0.897
29.471,27.37,47.76,999.97,0.000000,0.000000,0.00,0,0,-0.0356,0.0566,0.8784,4.0687,-2.4504,-0.1985,0.881
29.546,27.38,47.76,999.97,0.000000,0.000000,0.00,0,0,-0.0417,0.0603,0.8655,3.4122,-2.2443,-0.0534,0.869
29.552,27.38,47.76,999.97,0.000000,0.000000,0.00,0,0,-0.0378,0.0517,0.8630,2.2290,-2.0687,-0.2061,0.865
29.558,27.38,47.76,999.97,0.000000,0.000000,0.00,0,0,-0.0417,0.0571,0.8738,1.3511,-1.6565,-0.3664,0.877
29.564,27.38,47.76,999.97,0.000000,0.000000,0.00,0,0,-0.0417,0.0437,0.8843,1.2519,-1.6489,-0.5267,0.886
29.640,27.38,47.78,999.97,0.000000,0.000000,0.00,0,0,-0.0293,0.0539,0.8989,5.4580,-0.6947,-4.8092,0.901
29.646,27.38,47.78,999.97,0.000000,0.000000,0.00,0,0,-0.0283,0.0588,0.8918,4.9084,-0.6260,-4.8092,0.894
29.652,27.38,47.78,999.97,0.000000,0.000000,0.00,0,0,-0.0261,0.0656,0.8992,4.4427,-0.3817,-5.0076,0.902
29.658,27.38,47.78,999.97,0.000000,0.000000,0.00,0,0,-0.0339,0.0615,0.9128,3.8779,-0.0534,-5.1908,0.916
29.664,27.38,47.78,999.97,0.000000,0.000000,0.00,0,0,-0.0283,0.0546,0.9133,3.5878,0.1450,-5.2824,0.915
29.670,27.38,47.78,999.97,0.000000,0.000000,0.00,0,0,-0.0349,0.0603,0.9128,3.5420,0.2061,-5.2595,0.915
29.676,27.38,47.78,999.97,0.000000,0.000000,0.00,0,0,-0.0397,0.0637,0.9138,3.6031,0.5802,-5.2977,0.917
29.682,27.38,47.78,999.97,0.000000,0.000000,0.00,0,0,-0.0373,0.0666,0.9084,3.7710,1.1145,-5.4046,0.912
29.688,27.38,47.78,999.97,0.000000,0.000000,0.00,0,0,-0.0332,0.0568,0.9082,4.1145,1.3511,-5.5802,0.911
29.694,27.38,47.78,999.97,0.000000,0.000000,0.00,0,0,-0.0388,0.0588,0.8975,4.6412,1.5267,-5.6260,0.900
29.988,27.39,47.82,999.98,0.000000,0.000000,0.00,0,0,-0.0314,0.0847,0.9087,0.2443,-1.3664,1.5420,0.913
29.994,27.39,47.82,999.98,0.000000,0.000000,0.00,0,0,-0.0351,0.0825,0.9058,-0.0381,-1.3969,2.0992,0.910
30.000,27.38,47.83,999.98,0.000000,0.000000,0.00,0,0,-0.0400,0.0705,0.8972,0.5802,2.9847,6.0992,0.901
30.074,27.38,47.83,999.98,0.000000,0.000000,0.00,0,0,-0.0410,0.0742,0.8953,0.9008,3.0534,6.4122,0.899
30.080,27.38,47.83,999.98,0.000000,0.000000,0.00,0,0,-0.0378,0.0683,0.8889,0.9466,3.5573,6.4046,0.892
30.086,27.38,47.83,999.98,0.000000,0.000000,0.00,0,0,-0.0407,0.0639,0.8914,1.0534,3.7023,6.5802,0.895
30.092,27.38,47.83,999.98,0.000000,0.000000,0.00,0,0,-0.0395,0.0661,0.8975,1.2443,3.9389,6.8092,0.901
30.098,27.39,47.83,999.97,0.000000,0.000000,0.00,0,0,-0.0358,0.0671,0.8909,1.2901,3.6031,6.6336,0.894
30.104,27.39,47.83,999.97,0.000000,0.000000,0.00,0,0,-0.0383,0.0610,0.8804,1.6107,3.4046,6.6718,0.883
30.110,27.39,47.83,999.97,0.000000,0.000000,0.00,0,0,-0.0405,0.0598,0.8826,1.8779,3.1832,6.4962,0.886
30.260,27.37,47.85,999.95,0.000000,0.000000,0.00,0,0,-0.0507,0.0710,0.8914,5.2977,4.2443,0.9084,0.896
30.266,27.37,47.85,999.95,0.000000,0.000000,0.00,0,0,-0.0481,0.0693,0.8879,5.2824,4.1985,0.2061,0.892
