Time_s,Temperature_C,Humidity_%,Pressure_hPa,Lat,Lng,Alt_m,Fix,Sats,AccelX_g,AccelY_g,AccelZ_g,GyroX_deg_s,GyroY_deg_s,GyroZ_deg_s,TotalAccel
77.745,26.99,45.23,999.84,0.000000,0.000000,0.00,0,1,0.1863,-0.0817,1.0269,-4.0992,-1.8244,3.9160,1.047
77.818,26.99,45.23,999.84,0.000000,0.000000,0.00,0,1,0.1814,-0.0749,1.0027,4.9160,2.0916,1.7405,1.022
77.858,26.98,45.20,999.81,0.000000,0.000000,0.00,0,1,0.1846,-0.0861,1.0176,7.9313,3.9466,-1.1985,1.038
77.934,26.98,45.20,999.81,0.000000,0.000000,0.00,0,1,0.1724,-0.0898,1.0146,10.7634,5.5115,-3.0992,1.033
78.024,26.98,45.22,999.82,0.000000,0.000000,0.00,0,1,0.2017,-0.0439,1.0298,5.8550,3.2977,-3.3740,1.050
78.118,26.99,45.22,999.81,0.000000,0.000000,0.00,0,1,0.1650,-0.0739,1.0017,3.6183,0.3511,6.9771,1.018
78.219,26.99,45.22,999.84,0.000000,0.000000,0.00,0,1,0.1941,-0.1140,0.9658,0.0839,-0.2519,0.4046,0.992
78.318,26.99,45.18,999.83,0.000000,0.000000,0.00,0,1,0.2507,-0.1172,1.0122,0.3130,12.2061,3.1069,1.049
78.418,27.00,45.17,999.82,0.000000,0.000000,0.00,0,1,0.1086,-0.1150,1.0474,-3.1221,9.4733,0.2443,1.059
78.459,27.00,45.22,999.83,0.000000,0.000000,0.00,0,1,0.1040,-0.1140,1.0730,-1.0763,9.3206,-0.1679,1.084
78.592,27.00,45.21,999.81,0.000000,0.000000,0.00,0,3,0.1191,-0.0053,1.0093,4.7405,9.4656,-6.2901,1.016
78.725,27.00,45.18,999.83,0.000000,0.000000,0.00,0,3,0.1035,-0.0314,1.0273,8.2824,7.5878,0.3740,1.033
78.785,27.00,45.18,999.83,0.000000,0.000000,0.00,0,3,0.1055,-0.0510,1.0269,5.1679,-0.1298,1.6489,1.034
78.885,26.99,45.19,999.82,0.000000,0.000000,0.00,0,3,0.1260,-0.0515,1.0305,0.9542,-6.5420,1.4122,1.039
78.891,26.99,45.19,999.82,0.000000,0.000000,0.00,0,3,0.1340,-0.0590,1.0195,0.8397,-6.4656,1.4733,1.030
78.897,26.99,45.19,999.82,0.000000,0.000000,0.00,0,3,0.1382,-0.0573,1.0315,1.0076,-6.3969,1.2977,1.042
78.903,26.99,0.00,999.82,0.000000,0.000000,0.00,0,3,0.1687,-0.0625,0.9902,3.7023,-2.7328,-0.4351,1.006
78.978,27.00,45.15,999.82,0.000000,0.000000,0.00,0,3,0.1655,-0.0454,0.9944,2.8550,-1.9771,0.0381,1.009
78.984,27.00,45.15,999.82,0.000000,0.000000,0.00,0,3,0.1707,-0.0405,1.0012,1.5420,-1.4351,-0.0534,1.016
78.990,27.00,45.15,999.82,0.000000,0.000000,0.00,0,3,0.1650,-0.0449,0.9971,1.5725,-0.9924,0.1374,1.012
79.115,27.00,45.16,999.82,0.000000,0.000000,0.00,0,3,0.1401,-0.0793,1.0193,2.8473,4.1832,3.3969,1.032
79.120,27.00,45.16,999.82,0.000000,0.000000,0.00,0,3,0.1484,-0.0656,1.0225,3.0153,3.8015,3.0687,1.035
79.126,27.00,45.16,999.82,0.000000,0.000000,0.00,0,3,0.1313,-0.0722,1.0234,2.2824,3.6183,2.5038,1.034
79.132,27.00,45.16,999.82,0.000000,0.000000,0.00,0,3,0.1384,-0.0703,1.0295,2.3511,3.1069,2.2672,1.041
79.138,27.00,45.16,999.82,0.000000,0.000000,0.00,0,3,0.1294,-0.0756,1.0266,2.5573,3.0534,1.6183,1.037
79.144,27.00,45.16,999.82,0.000000,0.000000,0.00,0,3,0.1328,-0.0783,1.0305,2.5649,2.6031,1.2443,1.042
79.150,27.00,45.16,999.82,0.000000,0.000000,0.00,0,3,0.1460,-0.0761,1.0286,2.9084,2.3588,0.6183,1.042
79.156,27.00,45.16,999.82,0.000000,0.000000,0.00,0,3,0.1392,-0.0756,1.0232,2.5038,1.7634,0.0839,1.035
79.162,27.00,45.16,999.82,0.000000,0.000000,0.00,0,3,0.1379,-0.0756,1.0237,2.3817,1.7252,-0.1145,1.036
79.168,27.00,45.16,999.82,0.000000,0.000000,0.00,0,3,0.1528,-0.0759,1.0251,2.2366,1.3511,-0.8015,1.039
79.318,27.01,45.15,999.82,0.000000,0.000000,0.00,0,3,0.1499,-0.0449,0.9951,2.6565,2.9237,-0.6336,1.007
79.324,27.01,45.15,999.82,0.000000,0.000000,0.00,0,3,0.1460,-0.0463,1.0059,2.5038,2.7786,-0.4504,1.017
79.330,27.01,45.15,999.82,0.000000,0.000000,0.00,0,3,0.1494,-0.0493,0.9985,2.5954,2.6794,-0.4809,1.011
79.336,27.01,45.15,999.82,0.000000,0.000000,0.00,0,3,0.1418,-0.0498,1.0034,2.5115,2.6183,-0.1756,1.015
79.342,27.01,45.15,999.82,0.000000,0.000000,0.00,0,3,0.1448,-0.0524,1.0046,2.3282,2.7328,0.0229,1.016
79.348,27.01,45.15,999.82,0.000000,0.000000,0.00,0,3,0.1467,-0.0568,1.0005,2.1603,2.9771,0.2061,1.013
79.354,27.01,45.15,999.82,0.000000,0.000000,0.00,0,3,0.1453,-0.0585,1.0015,2.0000,3.1145,0.3893,1.014
79.360,27.01,45.15,999.82,0.000000,0.000000,0.00,0,3,0.1426,-0.0607,0.9976,1.7252,3.3893,0.3817,1.010
79.366,27.01,45.15,999.82,0.000000,0.000000,0.00,0,3,0.1394,-0.0678,0.9966,1.8626,3.5725,0.6794,1.009
79.372,27.01,45.15,999.82,0.000000,0.000000,0.00,0,3,0.1335,-0.0756,1.0007,1.9847,3.4122,0.5496,1.012
79.465,26.98,45.14,999.77,0.000000,0.000000,0.00,0,3,0.1365,-0.0461,1.0220,3.5573,3.7099,-4.0534,1.032
79.471,26.98,45.14,999.77,0.000000,0.000000,0.00,0,3,0.1311,-0.0451,1.0247,4.3664,3.9389,-4.0382,1.034
79.477,26.98,45.14,999.77,0.000000,0.000000,0.00,0,3,0.1436,-0.0463,1.0254,5.1298,4.0687,-3.8626,1.036
79.483,26.98,45.14,999.77,0.000000,0.000000,0.00,0,3,0.1304,-0.0434,1.0378,5.9695,4.3893,-3.4122,1.047
79.489,26.98,45.14,999.77,0.000000,0.000000,0.00,0,3,0.1335,-0.0463,1.0266,6.6031,4.6718,-3.1756,1.036
79.495,26.98,45.14,999.77,0.000000,0.000000,0.00,0,3,0.1284,-0.0432,1.0371,7.3969,4.8092,-2.7099,1.046
79.500,26.98,45.06,999.82,0.000000,0.000000,0.00,0,3,0.2119,0.0730,1.0771,5.4046,4.8855,-0.8550,1.100
79.506,27.01,45.06,999.82,0.000000,0.000000,0.00,0,3,0.1365,-0.0019,1.0403,8.0229,5.6947,-2.1985,1.049
79.512,27.01,45.06,999.82,0.000000,0.000000,0.00,0,3,0.1289,-0.0612,1.0505,6.2977,4.4656,-0.5725,1.060
79.587,27.01,45.06,999.82,0.000000,0.000000,0.00,0,3,0.1128,-0.0593,1.0537,5.9847,3.8779,-0.4580,1.061
79.738,27.01,45.13,999.83,0.000000,0.000000,0.00,0,3,0.1470,-0.0332,1.0110,-2.2214,-3.7405,-0.1985,1.022
79.744,27.01,45.13,999.83,0.000000,0.000000,0.00,0,3,0.1445,-0.0246,1.0134,-2.1298,-3.0229,0.0229,1.024
79.750,27.01,45.13,999.83,0.000000,0.000000,0.00,0,3,0.1453,-0.0268,1.0125,-2.0000,-2.6870,0.3664,1.023
79.756,27.01,45.13,999.83,0.000000,0.000000,0.00,0,3,0.1421,-0.0297,1.0181,-1.6336,-2.3053,0.6794,1.028
79.762,27.01,45.13,999.83,0.000000,0.000000,0.00,0,3,0.1472,-0.0437,1.0237,-0.7786,-1.8550,1.0916,1.035
79.768,27.01,45.13,999.83,0.000000,0.000000,0.00,0,3,0.1392,-0.0385,1.0286,0.0916,-1.7176,1.3206,1.039
79.774,27.01,45.13,999.83,0.000000,0.000000,0.00,0,3,0.1558,-0.0358,1.0210,0.8931,-1.3130,1.6412,1.033
79.780,27.01,45.13,999.83,0.000000,0.000000,0.00,0,3,0.1416,-0.0344,1.0205,1.4809,-0.9008,1.6183,1.031
79.786,27.01,45.13,999.83,0.000000,0.000000,0.00,0,3,0.1514,-0.0407,1.0154,2.1985,-0.5573,1.7786,1.027
79.792,27.01,45.13,999.81,0.000000,0.000000,0.00,0,3,0.1475,-0.0371,1.0234,2.7939,-0.2290,1.7405,1.035
79.983,27.01,45.12,999.82,0.000000,0.000000,0.00,0,3,0.1870,-0.0349,1.0032,2.8550,1.9695,0.4962,1.021
80.057,27.01,45.12,999.82,0.000000,0.000000,0.00,0,3,0.1721,-0.0417,1.0007,3.0916,2.1221,0.3435,1.016
80.063,27.01,45.12,999.82,0.000000,0.000000,0.00,0,3,0.1755,-0.0412,1.0066,2.9389,2.7405,0.5725,1.023
80.069,27.01,45.12,999.82,0.000000,0.000000,0.00,0,3,0.1687,-0.0432,1.0098,2.9313,3.0763,0.8855,1.025
80.075,27.01,45.09,999.83,0.000000,0.000000,0.00,0,3,0.1414,-0.0598,1.0298,3.3893,5.8092,4.0840,1.041
80.150,27.01,45.09,999.83,0.000000,0.000000,0.00,0,3,0.1438,-0.0637,1.0320,3.6947,5.6336,4.5649,1.044
80.155,27.01,45.09,999.83,0.000000,0.000000,0.00,0,3,0.1309,-0.0690,1.0369,3.5954,5.5038,4.7863,1.047
80.162,27.01,45.09,999.83,0.000000,0.000000,0.00,0,3,0.1404,-0.0737,1.0364,3.4733,5.3053,4.8321,1.048
80.167,27.01,45.09,999.83,0.000000,0.000000,0.00,0,3,0.1387,-0.0786,1.0366,3.4580,4.9924,4.9924,1.049
80.174,27.01,45.09,999.83,0.000000,0.000000,0.00,0,3,0.1387,-0.0717,1.0308,3.0916,4.6641,4.7634,1.043
80.255,27.02,45.10,999.81,0.000000,0.000000,0.00,0,3,0.2815,0.0100,1.0051,-5.6565,-1.4733,1.2137,1.044
80.261,27.02,45.10,999.81,0.000000,0.000000,0.00,0,3,0.1255,-0.0185,1.0396,-7.0305,-1.6183,-0.5954,1.047
80.267,27.02,45.10,999.81,0.000000,0.000000,0.00,0,3,0.1299,-0.0900,1.0474,-5.8702,-2.3511,-0.7710,1.059
80.273,27.02,45.10,999.81,0.000000,0.000000,0.00,0,3,0.1565,-0.0612,1.0286,-6.7481,-2.4351,-0.8855,1.042
80.279,27.02,45.09,999.83,0.000000,0.000000,0.00,0,3,0.1487,-0.0251,1.0027,-4.9389,-1.9008,-2.1908,1.014
80.354,27.02,45.08,999.82,0.000000,0.000000,0.00,0,3,0.1602,-0.0356,1.0049,8.0611,4.3511,2.9618,1.018
80.501,27.02,45.08,999.82,0.000000,0.000000,0.00,0,3,0.1494,-0.0808,1.0376,7.2824,3.2901,5.0076,1.051
80.576,27.02,45.07,999.81,0.000000,0.000000,0.00,0,3,0.1533,-0.0910,1.0288,6.7328,3.0916,4.8321,1.044
80.582,27.01,45.07,999.81,0.000000,0.000000,0.00,0,3,0.1528,-0.0861,1.0313,5.5344,3.2519,4.4046,1.046
80.588,27.01,45.07,999.81,0.000000,0.000000,0.00,0,3,0.1550,-0.0815,1.0276,4.6870,2.8855,4.0458,1.042
80.738,27.00,45.07,999.77,0.000000,0.000000,0.00,0,3,0.1443,-0.0647,1.0195,-0.7328,-0.3130,-2.4733,1.032
80.744,27.00,45.07,999.77,0.000000,0.000000,0.00,0,3,0.1455,-0.0673,1.0146,-0.6031,-0.6870,-2.6260,1.027
80.750,27.00,45.07,999.77,0.000000,0.000000,0.00,0,3,0.1528,-0.0651,1.0117,-0.7176,-0.2977,-3.1298,1.025
80.756,27.00,45.07,999.77,0.000000,0.000000,0.00,0,3,0.1567,-0.0600,1.0181,-0.7634,-0.1069,-3.3130,1.032
80.762,27.00,45.07,999.77,0.000000,0.000000,0.00,0,3,0.1609,-0.0566,1.0137,-0.6489,-0.1985,-3.4885,1.028
80.768,27.00,45.07,999.77,0.000000,0.000000,0.00,0,3,0.1650,-0.0405,1.0215,-0.4809,-0.1756,-3.7481,1.036
80.774,27.01,45.09,999.80,0.000000,0.000000,0.00,0,3,0.1687,-0.0410,1.0205,-0.4809,0.1527,-3.9695,1.035
80.780,27.01,45.09,999.80,0.000000,0.000000,0.00,0,3,0.1775,-0.0385,1.0278,-0.5344,0.6641,-4.1985,1.044
80.786,27.01,45.09,999.80,0.000000,0.000000,0.00,0,3,0.1760,-0.0314,1.0369,-0.6336,0.4275,-4.5802,1.052
80.792,27.01,45.09,999.80,0.000000,0.000000,0.00,0,3,0.1790,-0.0097,1.0288,-0.3969,0.6794,-4.2137,1.044
80.938,27.00,45.06,999.79,0.000000,0.000000,0.00,0,3,0.1323,-0.0363,1.0210,3.1985,0.5115,-6.5420,1.030
80.944,27.00,45.06,999.79,0.000000,0.000000,0.00,0,3,0.1360,-0.0412,1.0146,3.5496,0.8244,-6.6183,1.025
80.950,27.00,45.06,999.79,0.000000,0.000000,0.00,0,3,0.1458,-0.0437,1.0083,2.9695,0.7405,-6.5267,1.020
80.956,27.00,45.06,999.79,0.000000,0.000000,0.00,0,3,0.1489,-0.0620,1.0051,1.7710,0.9160,-6.6565,1.018
80.962,27.00,45.06,999.79,0.000000,0.000000,0.00,0,3,0.1611,-0.0783,1.0039,-1.0687,1.5649,-7.2443,1.020
80.968,27.02,45.06,999.81,0.000000,0.000000,0.00,0,3,0.1611,-0.0805,1.0093,-5.0687,2.6947,-7.7634,1.025
80.974,27.02,45.06,999.81,0.000000,0.000000,0.00,0,3,0.1472,-0.1042,1.0027,-10.2748,5.1527,-8.4733,1.019
80.980,27.02,45.06,999.81,0.000000,0.000000,0.00,0,3,0.2324,-0.2202,1.0996,-13.5878,5.1527,-10.8321,1.145
80.986,27.02,45.06,999.80,0.000000,0.000000,0.00,0,3,0.1277,0.0368,1.0100,7.6489,25.0305,-21.6336,1.019
81.130,27.01,45.06,999.80,0.000000,0.000000,0.00,0,3,0.1516,0.0195,0.9863,9.9542,27.0076,-21.7481,0.998
81.305,27.02,45.05,999.83,0.000000,0.000000,0.00,0,3,0.0822,-0.0175,0.9805,47.2901,19.9771,-4.4962,0.984
81.311,27.02,45.05,999.83,0.000000,0.000000,0.00,0,3,0.0764,-0.0058,0.9778,48.2595,19.1603,-6.5573,0.981
81.317,27.02,45.05,999.83,0.000000,0.000000,0.00,0,3,0.0488,-0.0105,0.9719,48.8015,18.4351,-8.2214,0.973
81.323,27.02,45.05,999.83,0.000000,0.000000,0.00,0,3,0.0581,-0.0278,0.9624,47.9084,17.9542,-11.2366,0.965
81.329,27.02,45.05,999.83,0.000000,0.000000,0.00,0,3,0.0642,-0.0075,0.9558,47.3435,17.3206,-12.6718,0.958
81.335,27.02,45.05,999.83,0.000000,0.000000,0.00,0,3,0.0490,-0.0476,0.9287,46.3359,16.4427,-15.2901,0.931
81.341,27.02,45.05,999.83,0.000000,0.000000,0.00,0,3,0.0681,-0.0651,0.9150,46.3435,15.4580,-17.5191,0.920
81.347,27.02,45.05,999.83,0.000000,0.000000,0.00,0,3,0.0710,-0.0671,0.9031,46.9084,14.2061,-19.6947,0.908
81.353,27.02,45.05,999.83,0.000000,0.000000,0.00,0,3,0.0781,-0.0629,0.8882,47.7557,13.1145,-21.9466,0.894
81.359,27.03,45.06,999.83,0.000000,0.000000,0.00,0,3,0.0942,-0.0293,0.8848,47.5649,11.9466,-24.0763,0.890
81.505,27.03,45.03,999.82,0.000000,0.000000,0.00,0,3,0.0866,0.1689,1.0093,-3.1756,3.5420,-9.4809,1.027
81.511,27.03,45.03,999.82,0.000000,0.000000,0.00,0,3,0.0407,0.1440,1.0078,-8.2824,3.4046,-6.8931,1.019
81.517,27.03,45.03,999.82,0.000000,0.000000,0.00,0,3,0.0322,0.1433,1.0005,-12.3511,3.5420,-3.5267,1.011
81.523,27.03,45.03,999.82,0.000000,0.000000,0.00,0,3,0.0234,0.1218,1.0015,-15.5115,3.6107,-0.5573,1.009
81.529,27.03,45.03,999.82,0.000000,0.000000,0.00,0,3,-0.0053,0.1292,1.0283,-18.4427,3.4656,2.5878,1.036
81.535,27.03,45.03,999.82,0.000000,0.000000,0.00,0,3,-0.0007,0.1069,1.0439,-20.1298,3.3053,5.9924,1.049
81.541,27.03,45.03,999.82,0.000000,0.000000,0.00,0,3,-0.0095,0.1052,1.0674,-20.4886,2.9847,9.1908,1.073
81.547,27.03,45.03,999.82,0.000000,0.000000,0.00,0,3,-0.0080,0.0925,1.0869,-20.3664,2.6870,13.1450,1.091
81.553,27.03,45.00,999.81,0.000000,0.000000,0.00,0,3,-0.0080,0.0856,1.0889,-20.1908,2.3282,16.5191,1.092
81.559,27.03,45.00,999.81,0.000000,0.000000,0.00,0,3,-0.0061,0.0791,1.0886,-19.6641,2.4504,19.7710,1.092
81.675,27.02,45.02,999.81,0.000000,0.000000,0.00,0,3,-0.0385,-0.0476,0.9993,-5.2061,2.8931,39.3740,1.001
81.681,27.02,45.02,999.81,0.000000,0.000000,0.00,0,3,-0.0031,-0.0664,1.0024,-4.0611,2.8702,38.0611,1.005
81.687,27.02,45.02,999.81,0.000000,0.000000,0.00,0,3,-0.0227,-0.0546,1.0339,-2.8168,1.7481,36.8244,1.036
81.693,27.02,45.02,999.81,0.000000,0.000000,0.00,0,3,-0.0210,-0.1389,1.0232,8.6489,-6.0229,26.0763,1.033
81.767,27.02,45.01,999.80,0.000000,0.000000,0.00,0,3,0.0197,-0.0720,1.0173,7.4275,-5.8473,25.5802,1.020
81.773,27.02,45.01,999.80,0.000000,0.000000,0.00,0,3,-0.0327,-0.0808,1.0000,8.2214,-6.6412,25.7557,1.004
81.779,27.02,45.01,999.80,0.000000,0.000000,0.00,0,3,-0.0261,-0.2075,1.0137,9.8397,-5.3969,26.5114,1.035
81.785,27.02,45.01,999.80,0.000000,0.000000,0.00,0,3,0.0031,-0.0893,0.9922,7.6107,-6.1221,26.3130,0.996
81.791,27.02,45.01,999.80,0.000000,0.000000,0.00,0,3,-0.0078,-0.0913,1.0005,6.8397,-6.3206,26.9618,1.005
81.797,27.01,45.01,999.77,0.000000,0.000000,0.00,0,3,-0.0324,-0.0959,0.9441,20.7863,-11.6183,24.0611,0.950
81.998,27.03,45.01,999.83,0.000000,0.000000,0.00,0,3,0.0210,0.0061,1.1560,-12.9847,-4.3588,22.0076,1.156
82.004,27.03,45.01,999.83,0.000000,0.000000,0.00,0,3,-0.0114,-0.0468,1.1025,-12.1908,-4.6031,22.5267,1.104
82.010,27.03,45.01,999.83,0.000000,0.000000,0.00,0,3,0.0136,-0.0117,1.1067,-11.2977,-4.3740,24.6031,1.107
82.016,27.03,45.01,999.83,0.000000,0.000000,0.00,0,3,-0.0041,-0.0175,1.1199,-10.5725,-4.2748,24.8779,1.120
82.022,27.03,45.01,999.83,0.000000,0.000000,0.00,0,3,0.0112,-0.0112,1.1196,-9.1908,-4.2061,26.7710,1.120
82.028,27.03,45.01,999.83,0.000000,0.000000,0.00,0,3,-0.0031,-0.0361,1.1108,-6.7099,-4.5496,27.2901,1.111
82.034,27.03,45.01,999.83,0.000000,0.000000,0.00,0,3,0.1074,-0.0190,1.1382,-5.2443,-4.2977,28.9924,1.143
82.040,27.03,45.01,999.82,0.000000,0.000000,0.00,0,3,0.0100,-0.0153,1.0901,-1.1832,-5.6489,29.6260,1.090
82.046,27.04,44.93,999.83,0.000000,0.000000,0.00,0,3,0.0229,-0.1277,0.9629,-7.2443,-17.9924,24.0611,0.972
82.121,27.04,44.93,999.81,0.000000,0.000000,0.00,0,3,0.0930,-0.2185,0.9314,-22.7710,-31.0076,3.2061,0.961
82.366,27.04,44.99,999.82,0.000000,0.000000,0.00,0,3,0.2375,-0.1926,1.0027,-9.3969,6.8015,-2.8626,1.048
82.372,27.04,44.99,999.82,0.000000,0.000000,0.00,0,3,0.2388,-0.1956,1.0063,-9.0687,7.8473,-3.7710,1.053
82.378,27.04,44.99,999.82,0.000000,0.000000,0.00,0,3,0.2554,-0.1985,1.0156,-8.8702,8.5191,-4.8015,1.066
82.384,27.04,44.99,999.82,0.000000,0.000000,0.00,0,3,0.2520,-0.2144,1.0234,-8.9771,9.4427,-5.2137,1.076
82.390,27.04,44.99,999.82,0.000000,0.000000,0.00,0,3,0.2507,-0.2114,1.0215,-9.4809,10.6718,-5.7328,1.073
82.396,27.04,44.99,999.82,0.000000,0.000000,0.00,0,3,0.2097,-0.2942,1.0295,-8.3969,12.4733,-5.9313,1.091
82.402,27.04,44.99,999.82,0.000000,0.000000,0.00,0,3,0.2139,-0.1985,0.9529,-11.9924,12.9313,-7.4504,0.997
82.408,27.04,44.99,999.78,0.000000,0.000000,0.00,0,3,0.1592,-0.2178,1.0151,-21.4198,16.7634,-11.3511,1.050
82.482,27.03,44.99,999.78,0.000000,0.000000,0.00,0,3,0.1558,-0.2197,1.0139,-22.7328,16.2595,-11.0305,1.049
82.488,27.03,44.99,999.78,0.000000,0.000000,0.00,0,3,0.1465,-0.2078,1.0244,-23.5038,15.7481,-11.0076,1.055
82.668,27.04,44.97,999.83,0.000000,0.000000,0.00,0,3,0.1519,-0.1138,1.0217,-33.5954,0.5267,-4.5649,1.039
82.743,27.04,44.96,999.84,0.000000,0.000000,0.00,0,3,0.1392,-0.1135,1.0276,-32.7481,0.0305,-4.8855,1.043
82.749,27.04,44.96,999.84,0.000000,0.000000,0.00,0,3,0.1475,-0.1196,1.0281,-31.7634,-0.3053,-4.9542,1.045
82.755,27.02,44.96,999.80,0.000000,0.000000,0.00,0,3,0.1824,-0.1282,0.9954,-32.6183,-3.4962,-6.1527,1.020
82.830,27.02,44.96,999.80,0.000000,0.000000,0.00,0,3,0.1829,-0.1177,1.0078,-33.8626,-3.9313,-6.2595,1.031
82.836,27.02,44.96,999.80,0.000000,0.000000,0.00,0,3,0.1863,-0.1094,0.9966,-38.0992,-2.5725,-4.9313,1.020
82.911,27.02,44.96,999.80,0.000000,0.000000,0.00,0,3,0.1799,-0.1147,0.9924,-38.7099,-1.9389,-4.2824,1.015
82.917,27.03,44.98,999.83,0.000000,0.000000,0.00,0,3,0.1956,-0.0969,0.9661,-19.9008,3.7405,-1.7634,0.990
82.992,27.03,44.98,999.83,0.000000,0.000000,0.00,0,3,0.2061,-0.0861,0.9612,-17.9313,4.3893,-1.9084,0.987
82.998,27.03,44.98,999.83,0.000000,0.000000,0.00,0,3,0.2070,-0.0839,0.9507,-16.4275,4.5267,-2.5802,0.977
83.139,27.04,44.95,999.82,0.000000,0.000000,0.00,0,3,0.1333,-0.1328,1.0667,-27.7634,18.3435,4.4580,1.083
83.145,27.04,44.95,999.82,0.000000,0.000000,0.00,0,3,0.1238,-0.1345,1.0774,-26.6641,18.6031,5.6947,1.093
83.151,27.04,44.95,999.84,0.000000,0.000000,0.00,0,3,0.0756,-0.0598,1.1077,-21.1145,12.1832,6.3053,1.112
83.225,27.03,44.95,999.82,0.000000,0.000000,0.00,0,3,0.2114,-0.2383,1.1216,-21.7328,8.8321,4.6031,1.166
83.231,27.03,44.95,999.82,0.000000,0.000000,0.00,0,3,0.1104,-0.1362,0.9524,-24.9695,11.9008,5.5573,0.968
83.237,27.03,44.95,999.82,0.000000,0.000000,0.00,0,3,0.1060,-0.0839,1.0317,-24.8702,10.1679,4.2901,1.041
83.243,27.03,44.95,999.82,0.000000,0.000000,0.00,0,3,0.1135,-0.1589,1.0225,-25.7710,9.7405,2.0611,1.041
83.249,27.03,44.95,999.82,0.000000,0.000000,0.00,0,3,0.1384,-0.0979,1.0171,-26.7023,8.5573,1.8397,1.031
83.255,27.03,44.95,999.82,0.000000,0.000000,0.00,0,3,0.1267,-0.1304,1.0164,-26.6260,6.9313,-0.0610,1.032
83.261,27.03,44.95,999.82,0.000000,0.000000,0.00,0,3,0.1426,-0.0986,1.0159,-26.7099,5.9160,-0.4198,1.031
83.383,27.01,44.94,999.83,0.000000,0.000000,0.00,0,3,0.1638,-0.1362,0.9841,0.0992,5.2366,6.6107,1.007
83.456,27.04,44.93,999.83,0.000000,0.000000,0.00,0,3,0.1626,-0.1455,0.9858,0.1985,5.0611,6.5878,1.010
83.462,27.04,44.93,999.83,0.000000,0.000000,0.00,0,3,0.1658,-0.1516,0.9893,0.0381,4.7252,6.6183,1.014
83.468,27.04,44.93,999.83,0.000000,0.000000,0.00,0,3,0.1699,-0.1541,0.9885,-0.3282,4.6412,6.6107,1.015
83.474,27.04,44.93,999.83,0.000000,0.000000,0.00,0,3,0.1790,-0.1609,0.9927,-0.5802,4.3664,6.3282,1.021
83.481,27.04,44.93,999.83,0.000000,0.000000,0.00,0,3,0.1765,-0.1658,0.9919,-1.0687,4.3359,6.3053,1.021
83.487,27.04,44.93,999.83,0.000000,0.000000,0.00,0,3,0.1685,-0.1675,0.9927,-1.6870,4.2748,6.2443,1.021
83.493,27.04,44.93,999.83,0.000000,0.000000,0.00,0,3,0.1758,-0.1755,0.9922,-2.4427,4.4962,5.8321,1.023
83.499,27.04,44.93,999.83,0.000000,0.000000,0.00,0,3,0.1650,-0.1799,0.9937,-3.0305,4.3664,5.5267,1.023
83.505,27.04,44.92,999.83,0.000000,0.000000,0.00,0,3,0.1855,-0.1404,1.0166,-12.7939,3.8397,0.7557,1.043
83.699,27.05,44.93,999.85,0.000000,0.000000,0.00,0,3,0.1663,-0.1069,1.0144,-29.6794,-0.0152,-2.4962,1.033
83.705,27.05,44.92,999.82,0.000000,0.000000,0.00,0,3,0.1604,-0.1074,1.0059,-29.3511,-0.2748,-3.1069,1.024
83.711,27.05,44.92,999.82,0.000000,0.000000,0.00,0,3,0.1697,-0.1008,1.0178,-28.5420,-0.4427,-2.9466,1.037
83.716,27.05,44.92,999.82,0.000000,0.000000,0.00,0,3,0.1665,-0.0964,1.0146,-28.1298,-0.6794,-3.0458,1.033
83.722,27.05,44.92,999.82,0.000000,0.000000,0.00,0,3,0.1716,-0.0844,1.0068,-27.6260,-0.9389,-3.0992,1.025
83.728,27.05,44.92,999.82,0.000000,0.000000,0.00,0,3,0.1641,-0.0888,1.0120,-27.0840,-0.7481,-2.9542,1.029
83.734,27.05,44.92,999.82,0.000000,0.000000,0.00,0,3,0.1770,-0.1001,1.0183,-26.5191,-0.9466,-2.6031,1.038
83.740,27.05,44.92,999.82,0.000000,0.000000,0.00,0,3,0.1753,-0.0849,1.0166,-25.6489,-0.8855,-2.3359,1.035
83.746,27.05,44.92,999.82,0.000000,0.000000,0.00,0,3,0.1824,-0.0876,1.0193,-24.1145,-0.8931,-1.8550,1.039
83.752,27.05,44.92,999.82,0.000000,0.000000,0.00,0,3,0.1904,-0.0800,1.0068,-22.6489,-1.0458,-1.6870,1.028
83.876,27.02,44.91,999.77,0.000000,0.000000,0.00,0,3,0.1870,-0.1582,1.0073,27.5344,-0.3435,20.6718,1.037
83.882,27.02,44.91,999.77,0.000000,0.000000,0.00,0,3,0.1978,-0.1587,1.0093,27.1450,-0.3435,21.6870,1.041
83.888,27.02,44.91,999.77,0.000000,0.000000,0.00,0,3,0.1985,-0.1548,0.9937,26.1985,-0.5115,22.2443,1.025
83.894,27.02,44.91,999.77,0.000000,0.000000,0.00,0,3,0.1992,-0.1653,0.9963,25.4580,-0.8092,22.9695,1.029
83.900,27.05,44.94,999.82,0.000000,0.000000,0.00,0,3,0.1514,-0.6545,0.8557,25.4733,-1.0687,26.2824,1.088
83.906,27.05,44.94,999.82,0.000000,0.000000,0.00,0,3,0.2217,-0.1694,0.9158,22.4809,-0.5038,23.2519,0.957
83.912,27.05,44.94,999.82,0.000000,0.000000,0.00,0,3,0.1968,-0.1968,0.9966,23.0916,-1.4046,24.4198,1.035
83.918,27.05,44.94,999.82,0.000000,0.000000,0.00,0,3,0.2065,-0.1768,0.9976,21.0305,-1.4962,24.4580,1.034
83.924,27.05,44.94,999.82,0.000000,0.000000,0.00,0,3,0.1646,-0.2024,0.9756,-5.5802,-6.5191,19.0229,1.010
83.999,27.03,44.90,999.78,0.000000,0.000000,0.00,0,3,0.1697,-0.2048,0.9736,-6.2443,-7.1908,18.2595,1.009
84.135,27.05,44.89,999.83,0.000000,0.000000,0.00,0,3,0.1665,-0.1606,0.9856,-24.2672,1.8473,11.8321,1.012
84.141,27.05,44.89,999.83,0.000000,0.000000,0.00,0,3,0.1616,-0.1665,0.9915,-23.0763,2.0000,11.6641,1.018
84.147,27.05,44.89,999.83,0.000000,0.000000,0.00,0,3,0.1658,-0.1755,1.0049,-22.0229,1.7557,11.7710,1.033
84.153,27.05,44.89,999.83,0.000000,0.000000,0.00,0,3,0.3364,-0.2520,0.7656,-25.8092,1.4580,10.6336,0.873
84.159,27.05,44.89,999.83,0.000000,0.000000,0.00,0,3,0.2166,-0.1536,1.0095,-19.6107,2.5115,11.8321,1.044
84.165,27.05,44.89,999.83,0.000000,0.000000,0.00,0,3,0.1387,-0.1729,1.0608,-15.0992,1.6718,9.7252,1.084
84.171,27.05,44.89,999.83,0.000000,0.000000,0.00,0,3,0.2666,-0.2117,1.0227,-12.3893,1.2672,11.8473,1.078
84.177,27.05,44.89,999.83,0.000000,0.000000,0.00,0,3,0.1614,-0.2053,1.0046,-11.2061,1.8092,10.3740,1.038
84.183,27.05,44.89,999.83,0.000000,0.000000,0.00,0,3,0.2280,-0.2246,1.0308,-9.7557,2.8626,11.2824,1.079
84.189,27.05,44.89,999.83,0.000000,0.000000,0.00,0,3,0.1860,-0.2122,1.0271,-9.1908,3.4733,10.0611,1.065
84.338,27.06,44.88,999.81,0.000000,0.000000,0.00,0,3,0.2249,-0.2417,1.0005,1.6260,10.6031,-14.0534,1.054
84.344,27.06,44.88,999.81,0.000000,0.000000,0.00,0,3,0.2153,-0.2361,0.9971,1.6641,10.3817,-14.7481,1.047
84.350,27.06,44.88,999.81,0.000000,0.000000,0.00,0,3,0.2207,-0.2378,1.0015,1.7786,10.5267,-15.6641,1.053
84.356,27.06,44.88,999.81,0.000000,0.000000,0.00,0,3,0.2083,-0.2231,1.0017,2.3130,10.3664,-16.1832,1.047
84.362,27.06,44.88,999.81,0.000000,0.000000,0.00,0,3,0.2412,-0.2732,1.0002,3.8931,11.3435,-16.3282,1.065
84.368,27.06,44.88,999.81,0.000000,0.000000,0.00,0,3,0.1560,-0.2256,0.9316,2.8855,10.0916,-18.2519,0.971
84.374,27.06,44.88,999.81,0.000000,0.000000,0.00,0,3,0.1870,-0.2305,1.0142,3.8626,10.8092,-16.8397,1.057
84.380,27.06,44.88,999.81,0.000000,0.000000,0.00,0,3,0.1819,-0.2305,1.0225,3.7252,10.6260,-17.6412,1.064
84.386,27.06,44.88,999.83,0.000000,0.000000,0.00,0,3,0.1863,-0.2175,1.0129,5.1145,10.6260,-17.5878,1.053
84.392,27.06,44.86,999.83,0.000000,0.000000,0.00,0,3,0.1821,-0.2378,1.0200,6.6870,10.3053,-17.4733,1.063
84.539,27.05,44.87,999.80,0.000000,0.000000,0.00,0,3,0.1521,-0.1663,0.9966,-3.7557,8.3282,0.2290,1.022
84.545,27.05,44.87,999.80,0.000000,0.000000,0.00,0,3,0.1497,-0.1584,0.9951,-4.1832,8.0076,0.8550,1.019
84.551,27.05,44.87,999.80,0.000000,0.000000,0.00,0,3,0.1523,-0.1606,0.9900,-4.2519,7.2672,2.0534,1.014
84.556,27.05,44.87,999.80,0.000000,0.000000,0.00,0,3,0.1487,-0.1565,0.9934,-4.2672,6.6947,2.7405,1.017
84.562,27.05,44.87,999.80,0.000000,0.000000,0.00,0,3,0.1626,-0.1641,0.9985,-4.7328,5.8702,3.9618,1.025
84.568,27.05,44.87,999.80,0.000000,0.000000,0.00,0,3,0.1655,-0.1521,1.0032,-5.0458,5.2977,4.4656,1.028
84.574,27.05,44.87,999.80,0.000000,0.000000,0.00,0,3,0.1704,-0.1538,1.0078,-6.1908,4.8779,5.3664,1.034
84.580,27.05,44.87,999.79,0.000000,0.000000,0.00,0,3,0.1667,-0.1460,1.0027,-7.5267,4.5954,6.0534,1.027
84.586,27.06,44.85,999.80,0.000000,0.000000,0.00,0,3,0.1790,-0.1499,1.0015,-9.0840,3.8550,6.4427,1.028
84.592,27.06,44.85,999.80,0.000000,0.000000,0.00,0,3,0.1724,-0.1299,1.0024,-10.5878,3.9313,6.6336,1.025
84.686,27.05,44.85,999.78,0.000000,0.000000,0.00,0,3,0.1648,-0.1741,0.9866,-1.4046,-4.8397,11.8168,1.015
84.692,27.05,44.85,999.78,0.000000,0.000000,0.00,0,3,0.1616,-0.1753,0.9949,-3.1145,-4.9924,11.9695,1.023
84.698,27.05,44.85,999.78,0.000000,0.000000,0.00,0,3,0.1445,-0.1848,1.0005,-5.4046,-4.5496,12.3053,1.028
84.704,27.05,44.85,999.78,0.000000,0.000000,0.00,0,3,0.2542,-0.1580,0.9675,-9.7557,-4.5954,12.6870,1.013
84.710,27.05,44.85,999.78,0.000000,0.000000,0.00,0,3,0.1418,-0.1697,1.0078,-10.2519,-3.5725,12.3359,1.032
84.716,27.05,44.85,999.78,0.000000,0.000000,0.00,0,3,0.1272,-0.2092,1.0198,-11.0229,-3.6641,12.2977,1.049
84.722,27.05,44.85,999.78,0.000000,0.000000,0.00,0,3,0.1411,-0.2100,1.0156,-12.2290,-3.6641,12.9237,1.047
84.728,27.05,44.85,999.78,0.000000,0.000000,0.00,0,3,0.1084,-0.1982,0.9988,-13.0611,-3.5496,12.9695,1.024
84.734,27.05,44.85,999.76,0.000000,0.000000,0.00,0,3,0.1304,-0.1990,0.9561,-10.1527,-8.1069,13.5878,0.985
84.808,27.03,44.84,999.76,0.000000,0.000000,0.00,0,3,0.1365,-0.2004,0.9558,-11.4122,-8.4275,13.2137,0.986
84.969,27.05,44.84,999.80,0.000000,0.000000,0.00,0,3,0.2632,-0.2356,0.9915,0.8779,-2.9847,4.7786,1.052
84.975,27.07,44.80,999.82,0.000000,0.000000,0.00,0,3,0.2703,-0.2300,1.0027,2.9160,-2.2672,3.5191,1.064
84.981,27.07,44.80,999.82,0.000000,0.000000,0.00,0,3,0.2776,-0.2434,1.0015,4.9008,-1.3664,3.4427,1.067
84.987,27.07,44.80,999.82,0.000000,0.000000,0.00,0,3,0.2786,-0.2510,0.9905,6.2519,-0.3740,2.9771,1.059
84.993,27.07,44.80,999.82,0.000000,0.000000,0.00,0,3,0.2710,-0.2449,0.9775,7.3435,0.3740,2.0458,1.044
84.999,27.07,44.80,999.82,0.000000,0.000000,0.00,0,3,0.2778,-0.2332,0.9792,7.9008,1.2443,1.2061,1.044
85.005,27.07,44.80,999.82,0.000000,0.000000,0.00,0,3,0.2866,-0.2327,0.9824,8.7786,2.0763,0.0458,1.049
85.011,27.07,44.80,999.82,0.000000,0.000000,0.00,0,3,0.2791,-0.2544,0.9768,9.2290,2.3893,-1.1832,1.047
85.017,27.07,44.80,999.82,0.000000,0.000000,0.00,0,3,0.2891,-0.2537,0.9766,10.6031,3.1832,-2.2977,1.050
85.023,27.07,44.80,999.82,0.000000,0.000000,0.00,0,3,0.2866,-0.2576,0.9795,12.1679,3.1985,-3.5573,1.053
85.147,27.02,44.83,999.76,0.000000,0.000000,0.00,0,3,0.2524,-0.2617,1.0190,4.2672,13.1908,-18.5496,1.082
85.153,27.02,44.83,999.76,0.000000,0.000000,0.00,0,3,0.2488,-0.2537,1.0242,3.2824,13.8626,-18.7863,1.084
85.159,27.02,44.83,999.76,0.000000,0.000000,0.00,0,3,0.2397,-0.2544,1.0156,1.5649,14.4656,-18.5649,1.074
85.165,27.06,44.83,999.84,0.000000,0.000000,0.00,0,3,0.1655,-0.2034,1.0039,2.4122,13.9924,-21.8931,1.038
85.240,27.06,44.83,999.84,0.000000,0.000000,0.00,0,3,0.1665,-0.1990,1.0088,4.3893,13.1374,-21.9466,1.042
85.246,27.06,44.83,999.84,0.000000,0.000000,0.00,0,3,0.1643,-0.1978,1.0078,6.1679,12.7710,-21.8779,1.040
85.252,27.06,44.83,999.84,0.000000,0.000000,0.00,0,3,0.1560,-0.2009,1.0071,8.4351,12.0611,-21.7710,1.039
85.258,27.06,44.83,999.84,0.000000,0.000000,0.00,0,3,0.1567,-0.2002,1.0039,10.0153,11.8092,-21.5038,1.036
85.264,27.06,44.83,999.82,0.000000,0.000000,0.00,0,3,0.1692,-0.1636,0.9934,24.6947,6.1450,-10.5344,1.021
85.339,27.06,44.81,999.82,0.000000,0.000000,0.00,0,3,0.1379,-0.1511,0.9885,24.7481,5.4351,-9.6107,1.009
85.466,27.07,44.81,999.81,0.000000,0.000000,0.00,0,3,0.1396,-0.1953,0.9636,16.5038,-1.6870,18.9924,0.993
85.472,27.07,44.81,999.81,0.000000,0.000000,0.00,0,3,0.1475,-0.1934,0.9680,15.5878,-1.8015,19.4504,0.998
85.478,27.07,44.81,999.81,0.000000,0.000000,0.00,0,3,0.1494,-0.1970,0.9678,15.0153,-2.2443,19.2824,0.999
85.484,27.07,44.81,999.81,0.000000,0.000000,0.00,0,3,0.1523,-0.1919,0.9670,14.4275,-2.4885,19.4122,0.998
85.490,27.07,44.81,999.81,0.000000,0.000000,0.00,0,3,0.1533,-0.1980,0.9702,13.4962,-2.9084,18.9771,1.002
85.496,27.07,44.81,999.81,0.000000,0.000000,0.00,0,3,0.1460,-0.1951,0.9697,12.7405,-3.1450,19.0076,1.000
85.502,27.07,44.81,999.81,0.000000,0.000000,0.00,0,3,0.1357,-0.2124,0.9700,11.0763,-3.2443,18.9313,1.002
85.508,27.07,44.81,999.81,0.000000,0.000000,0.00,0,3,0.1409,-0.2046,0.9773,10.5115,-4.0992,18.8168,1.008
85.514,27.07,44.81,999.81,0.000000,0.000000,0.00,0,3,0.1460,-0.2261,0.9851,10.1374,-5.3511,18.5267,1.021
85.520,27.07,44.81,999.81,0.000000,0.000000,0.00,0,3,0.1494,-0.2126,0.9885,9.5878,-5.4885,18.7405,1.022
85.562,27.03,44.80,999.76,0.000000,0.000000,0.00,0,3,0.2104,-0.2600,1.0830,16.5725,-5.5115,26.2824,1.133
85.636,27.03,44.80,999.76,0.000000,0.000000,0.00,0,3,0.2073,-0.2651,1.0657,16.9237,-5.5496,26.0305,1.118
85.642,27.03,44.80,999.76,0.000000,0.000000,0.00,0,3,0.2002,-0.2605,1.0591,16.4733,-5.5878,25.2137,1.109
85.648,27.03,44.80,999.76,0.000000,0.000000,0.00,0,3,0.2056,-0.2517,1.0425,15.7786,-5.8015,23.8702,1.092
85.654,27.03,44.80,999.76,0.000000,0.000000,0.00,0,3,0.1975,-0.2546,1.0295,14.6107,-5.9160,22.6641,1.079
85.660,27.06,44.83,999.79,0.000000,0.000000,0.00,0,3,0.1792,-0.2561,0.9988,11.6031,-6.2443,20.5954,1.047
85.666,27.06,44.83,999.79,0.000000,0.000000,0.00,0,3,0.2146,-0.2473,1.0398,10.0611,-6.6336,19.1679,1.090
85.672,27.06,44.83,999.79,0.000000,0.000000,0.00,0,3,0.1907,-0.2737,0.9929,-2.7176,-17.9237,-7.1603,1.047
85.747,27.06,44.83,999.79,0.000000,0.000000,0.00,0,3,0.1863,-0.2896,0.9851,-2.9771,-18.4046,-8.3817,1.044
85.753,27.06,44.83,999.79,0.000000,0.000000,0.00,0,3,0.1819,-0.2969,0.9841,-3.2672,-18.9466,-9.8779,1.044
85.794,27.05,44.77,999.79,0.000000,0.000000,0.00,0,3,0.2090,-0.2588,0.9702,-2.7710,-17.8092,-15.4122,1.026
85.800,27.05,44.77,999.79,0.000000,0.000000,0.00,0,3,0.2122,-0.2603,0.9612,-2.3588,-17.0992,-15.8550,1.018
85.806,27.05,44.77,999.79,0.000000,0.000000,0.00,0,3,0.2114,-0.2581,0.9714,-2.0076,-16.2748,-16.0382,1.027
85.812,27.05,44.77,999.79,0.000000,0.000000,0.00,0,3,0.2073,-0.2554,0.9688,-1.7557,-15.1450,-15.9389,1.023
85.818,27.05,44.77,999.79,0.000000,0.000000,0.00,0,3,0.2109,-0.2454,0.9688,-1.5038,-14.0687,-16.1908,1.021
85.824,27.05,44.77,999.79,0.000000,0.000000,0.00,0,3,0.2151,-0.2317,0.9670,-0.8855,-12.8855,-16.0382,1.017
85.830,27.05,44.77,999.79,0.000000,0.000000,0.00,0,3,0.2273,-0.2285,0.9668,0.4427,-11.7481,-15.7634,1.019
85.836,27.05,44.77,999.79,0.000000,0.000000,0.00,0,3,0.2244,-0.2058,0.9692,2.4580,-10.6718,-15.5038,1.016
85.842,27.05,44.77,999.79,0.000000,0.000000,0.00,0,3,0.2268,-0.2053,0.9631,4.5802,-9.5267,-15.0153,1.011
85.848,27.05,44.77,999.79,0.000000,0.000000,0.00,0,3,0.2290,-0.1892,0.9695,7.6107,-8.5344,-14.3740,1.014
85.989,27.07,44.78,999.81,0.000000,0.000000,0.00,0,3,0.2610,-0.2078,0.9795,38.8473,3.3053,-5.3893,1.035
85.995,27.07,44.78,999.81,0.000000,0.000000,0.00,0,3,0.2656,-0.2080,0.9749,35.6336,3.1908,-5.6489,1.032
86.001,27.07,44.78,999.81,0.000000,0.000000,0.00,0,3,0.2554,-0.2041,0.9656,32.7481,3.6565,-5.5954,1.019
86.007,27.07,44.78,999.81,0.000000,0.000000,0.00,0,3,0.2388,-0.2041,0.9661,29.8473,3.5878,-5.6183,1.016
86.013,27.07,44.78,999.81,0.000000,0.000000,0.00,0,3,0.2263,-0.2000,0.9663,27.4122,3.5191,-5.7939,1.012
86.018,27.07,44.78,999.81,0.000000,0.000000,0.00,0,3,0.2258,-0.1997,0.9644,25.4122,3.4351,-5.7328,1.010
86.024,27.07,44.78,999.81,0.000000,0.000000,0.00,0,3,0.1948,-0.1995,0.9429,23.8855,2.8473,-5.7328,0.983
86.030,27.07,44.78,999.81,0.000000,0.000000,0.00,0,3,0.2141,-0.2017,0.9832,21.4046,3.3130,-5.4275,1.026
86.037,27.07,44.78,999.81,0.000000,0.000000,0.00,0,3,0.1975,-0.2056,0.9700,19.9084,2.9847,-5.7557,1.011
86.042,27.07,44.78,999.81,0.000000,0.000000,0.00,0,3,0.1963,-0.1970,0.9614,18.7252,2.9389,-5.6718,1.001
86.179,27.08,44.77,999.83,0.000000,0.000000,0.00,0,3,0.2327,-0.1929,0.9883,26.9618,2.8244,7.5038,1.033
86.185,27.08,44.77,999.83,0.000000,0.000000,0.00,0,3,0.2366,-0.1895,0.9917,26.7634,3.0153,7.6718,1.037
86.191,27.08,44.77,999.83,0.000000,0.000000,0.00,0,3,0.2434,-0.1880,0.9934,26.6718,3.1832,8.1450,1.040
86.197,27.08,44.77,999.83,0.000000,0.000000,0.00,0,3,0.2437,-0.1887,0.9902,26.3206,3.1832,8.3511,1.037
86.203,27.08,44.77,999.83,0.000000,0.000000,0.00,0,3,0.2322,-0.1992,1.0024,25.6336,3.3435,8.6260,1.048
86.208,27.08,44.77,999.83,0.000000,0.000000,0.00,0,3,0.2454,-0.1973,1.0017,25.1679,3.7939,8.8473,1.050
86.214,27.08,44.77,999.83,0.000000,0.000000,0.00,0,3,0.2319,-0.1992,1.0056,24.4427,3.9618,9.2290,1.051
86.220,27.07,44.75,999.80,0.000000,0.000000,0.00,0,3,0.1860,-0.1965,0.9946,17.9924,4.3130,4.3817,1.031
86.295,27.07,44.75,999.80,0.000000,0.000000,0.00,0,3,0.1726,-0.1987,0.9922,18.2290,4.3435,3.6183,1.027
86.301,27.07,44.75,999.80,0.000000,0.000000,0.00,0,3,0.1733,-0.1907,0.9912,17.7786,4.3282,2.9542,1.024
86.449,27.07,44.76,999.83,0.000000,0.000000,0.00,0,3,0.1726,-0.2290,1.0232,23.2901,4.6794,-5.8244,1.063
86.455,27.07,44.76,999.83,0.000000,0.000000,0.00,0,3,0.1775,-0.2317,1.0254,22.3130,4.8855,-5.2977,1.066
86.461,27.07,44.76,999.83,0.000000,0.000000,0.00,0,3,0.1655,-0.2319,1.0269,21.5496,5.2748,-4.9084,1.066
86.467,27.07,44.76,999.83,0.000000,0.000000,0.00,0,3,0.1768,-0.2327,1.0227,20.6412,5.4962,-4.5573,1.064
86.473,27.07,44.76,999.83,0.000000,0.000000,0.00,0,3,0.1785,-0.2305,1.0242,19.7405,5.7557,-3.9924,1.065
86.478,27.07,44.76,999.83,0.000000,0.000000,0.00,0,3,0.1948,-0.3289,0.9822,18.1450,3.2137,-4.4885,1.054
86.484,27.07,44.75,999.79,0.000000,0.000000,0.00,0,3,0.1736,-0.2036,0.9778,14.0076,3.7557,-1.3664,1.014
86.563,27.05,44.75,999.79,0.000000,0.000000,0.00,0,3,0.1755,-0.2007,0.9670,12.7939,3.8092,-1.1679,1.003
86.569,27.05,44.75,999.79,0.000000,0.000000,0.00,0,3,0.1553,-0.1968,0.9705,11.6718,3.6336,-1.2214,1.002
86.575,27.05,44.75,999.79,0.000000,0.000000,0.00,0,3,0.1633,-0.2131,0.9717,10.4351,3.6947,-1.1527,1.008
86.639,27.06,44.74,999.81,0.000000,0.000000,0.00,0,3,0.1455,-0.1953,0.9941,5.6031,4.7557,1.6794,1.024
86.645,27.06,44.74,999.81,0.000000,0.000000,0.00,0,3,0.1365,-0.1948,0.9949,5.2443,4.6565,2.0153,1.023
86.651,27.06,44.74,999.81,0.000000,0.000000,0.00,0,3,0.1389,-0.2009,0.9976,5.2595,4.4427,2.3206,1.027
86.657,27.06,44.74,999.81,0.000000,0.000000,0.00,0,3,0.1396,-0.1914,1.0005,5.9237,3.9542,2.5115,1.028
86.663,27.06,44.74,999.81,0.000000,0.000000,0.00,0,3,0.1401,-0.1960,0.9995,5.8779,3.7328,3.0305,1.028
86.669,27.06,44.74,999.81,0.000000,0.000000,0.00,0,3,0.1401,-0.1892,1.0024,5.4809,3.6794,3.3206,1.030
86.675,27.06,44.74,999.81,0.000000,0.000000,0.00,0,3,0.1379,-0.1948,1.0051,5.1985,3.4809,3.5496,1.033
86.681,27.06,44.74,999.81,0.000000,0.000000,0.00,0,3,0.1379,-0.2021,1.0117,5.0611,3.1832,3.8244,1.041
86.687,27.06,44.74,999.81,0.000000,0.000000,0.00,0,3,0.1367,-0.2107,1.0120,4.6641,2.9008,3.7634,1.043
86.693,27.06,44.74,999.81,0.000000,0.000000,0.00,0,3,0.1384,-0.2090,1.0144,4.0840,3.0153,3.9695,1.045
86.819,27.05,44.74,999.74,0.000000,0.000000,0.00,0,3,0.1240,-0.1895,1.0134,-13.1603,-5.0458,-3.2595,1.038
86.824,27.05,44.74,999.74,0.000000,0.000000,0.00,0,3,0.1316,-0.1853,1.0159,-13.1374,-5.3817,-3.7328,1.041
86.831,27.08,44.74,999.82,0.000000,0.000000,0.00,0,3,0.1248,-0.1794,1.0132,-13.4504,-5.6412,-4.1603,1.036
86.836,27.08,44.74,999.82,0.000000,0.000000,0.00,0,3,0.1370,-0.1743,1.0151,-13.6183,-5.9084,-4.4580,1.039
86.842,27.08,44.74,999.82,0.000000,0.000000,0.00,0,3,0.1265,-0.1738,1.0176,-13.7099,-6.0000,-4.8779,1.040
86.848,27.08,44.74,999.82,0.000000,0.000000,0.00,0,3,0.1216,-0.1709,1.0051,-13.8397,-5.9542,-5.0687,1.027
86.855,27.08,44.74,999.82,0.000000,0.000000,0.00,0,3,0.1189,-0.1721,1.0125,-14.0992,-5.7939,-5.3588,1.034
86.861,27.08,44.74,999.82,0.000000,0.000000,0.00,0,3,0.1277,-0.1736,1.0081,-14.2824,-5.6183,-5.3817,1.031
86.867,27.08,44.74,999.82,0.000000,0.000000,0.00,0,3,0.1235,-0.1792,1.0056,-14.3740,-5.5802,-5.4504,1.029
86.873,27.08,44.74,999.82,0.000000,0.000000,0.00,0,3,0.1218,-0.1829,1.0078,-14.3969,-5.1145,-5.3130,1.031
86.956,27.05,44.73,999.78,0.000000,0.000000,0.00,0,3,0.1584,-0.1770,1.0056,5.7405,-0.4962,-3.5191,1.033
86.962,27.05,44.73,999.78,0.000000,0.000000,0.00,0,3,0.1750,-0.1733,1.0046,7.2977,-0.1985,-3.3664,1.034
86.968,27.05,44.73,999.78,0.000000,0.000000,0.00,0,3,0.1765,-0.1775,1.0015,8.3893,-0.1069,-3.6183,1.032
86.973,27.05,44.73,999.78,0.000000,0.000000,0.00,0,3,0.1692,-0.1760,1.0042,9.0382,0.4351,-3.1832,1.033
86.980,27.05,44.73,999.78,0.000000,0.000000,0.00,0,3,0.1846,-0.1821,1.0015,9.3282,0.8702,-3.2977,1.034
86.985,27.05,44.73,999.78,0.000000,0.000000,0.00,0,3,0.1787,-0.1865,1.0005,9.5191,1.2672,-3.1221,1.033
86.991,27.05,44.73,999.78,0.000000,0.000000,0.00,0,3,0.1794,-0.1917,1.0061,9.5420,1.8702,-2.9542,1.040
86.998,27.08,44.73,999.83,0.000000,0.000000,0.00,0,3,0.1746,-0.2144,1.0085,8.3130,3.0000,2.0916,1.046
87.141,27.09,44.73,999.83,0.000000,0.000000,0.00,0,3,0.1775,-0.2241,1.0020,7.8397,2.4275,2.5954,1.042
87.147,27.09,44.73,999.83,0.000000,0.000000,0.00,0,3,0.1799,-0.2173,1.0120,7.0382,2.0534,2.7023,1.051
87.298,27.07,44.72,999.82,0.000000,0.000000,0.00,0,3,0.1660,-0.2236,0.9949,-10.1374,-5.6947,1.5344,1.033
87.304,27.07,44.72,999.82,0.000000,0.000000,0.00,0,3,0.1689,-0.2134,0.9922,-9.4809,-5.4656,1.2595,1.029
87.310,27.07,44.72,999.82,0.000000,0.000000,0.00,0,3,0.1602,-0.2129,0.9924,-9.1374,-5.4046,1.1527,1.028
87.316,27.07,44.72,999.82,0.000000,0.000000,0.00,0,3,0.1604,-0.2239,0.9834,-8.4656,-5.2290,0.7328,1.021
87.322,27.09,44.72,999.84,0.000000,0.000000,0.00,0,3,0.1492,-0.2219,0.9895,-7.5191,-5.3817,0.4885,1.025
87.328,27.09,44.72,999.84,0.000000,0.000000,0.00,0,3,0.1641,-0.2266,0.9907,-6.7252,-5.1069,0.6031,1.029
87.334,27.09,44.72,999.84,0.000000,0.000000,0.00,0,3,0.1689,-0.2273,0.9895,-5.8626,-4.7710,0.1298,1.029
87.340,27.09,44.72,999.84,0.000000,0.000000,0.00,0,3,0.1624,-0.2241,0.9832,-5.2519,-4.7328,0.2137,1.021
87.346,27.09,44.72,999.84,0.000000,0.000000,0.00,0,3,0.1619,-0.2170,0.9797,-4.4580,-4.3435,-0.1298,1.016
87.352,27.09,44.72,999.84,0.000000,0.000000,0.00,0,3,0.1675,-0.2305,0.9766,-3.6489,-3.9008,-0.0458,1.017
87.467,27.06,44.71,999.77,0.000000,0.000000,0.00,0,3,0.2188,-0.2114,0.9792,2.0153,4.0916,1.1985,1.025
87.473,27.06,44.71,999.77,0.000000,0.000000,0.00,0,3,0.2197,-0.2024,0.9792,1.8626,4.6565,1.3817,1.024
87.479,27.06,44.71,999.77,0.000000,0.000000,0.00,0,3,0.2227,-0.2041,0.9915,1.9466,5.1527,1.7939,1.036
87.485,27.06,44.71,999.77,0.000000,0.000000,0.00,0,3,0.2178,-0.2087,0.9856,2.5802,5.3740,2.0534,1.031
87.491,27.06,44.71,999.77,0.000000,0.000000,0.00,0,3,0.2273,-0.2024,0.9822,3.1145,5.4962,2.2137,1.028
87.497,27.06,44.71,999.77,0.000000,0.000000,0.00,0,3,0.2258,-0.2041,0.9885,3.1145,5.8550,2.8168,1.034
87.503,27.06,44.71,999.77,0.000000,0.000000,0.00,0,3,0.2231,-0.2190,0.9941,3.2901,6.4733,2.9542,1.042
87.509,27.06,44.71,999.77,0.000000,0.000000,0.00,0,3,0.2251,-0.2124,0.9956,3.3053,7.0000,3.4427,1.043
87.515,27.09,44.69,999.84,0.000000,0.000000,0.00,0,3,0.2163,-0.2278,1.0010,2.8015,7.5496,3.6336,1.049
87.521,27.09,44.69,999.84,0.000000,0.000000,0.00,0,3,0.2246,-0.2212,1.0024,2.3817,7.8626,3.7405,1.051
87.641,27.08,44.69,999.82,0.000000,0.000000,0.00,0,3,0.1523,-0.1970,1.0073,-3.9084,1.9924,-4.6412,1.038
87.715,27.09,44.69,999.83,0.000000,0.000000,0.00,0,3,0.1511,-0.1929,1.0105,-3.5267,1.7863,-4.4427,1.040
87.721,27.09,44.69,999.83,0.000000,0.000000,0.00,0,3,0.1611,-0.1890,1.0037,-3.2290,1.7176,-4.3359,1.034
87.727,27.09,44.69,999.83,0.000000,0.000000,0.00,0,3,0.1616,-0.1851,1.0056,-2.9542,1.5725,-4.4275,1.035
87.733,27.09,44.69,999.83,0.000000,0.000000,0.00,0,3,0.1685,-0.1807,1.0015,-2.4733,1.2290,-4.0763,1.031
87.740,27.07,44.69,999.80,0.000000,0.000000,0.00,0,3,0.1648,-0.1897,0.9866,5.4198,1.6794,-2.8321,1.018
87.814,27.07,44.69,999.80,0.000000,0.000000,0.00,0,3,0.1611,-0.1843,0.9878,5.1298,1.8092,-2.8473,1.018
87.820,27.07,44.69,999.80,0.000000,0.000000,0.00,0,3,0.1594,-0.1924,0.9868,5.1145,1.6718,-3.0153,1.018
87.826,27.07,44.69,999.80,0.000000,0.000000,0.00,0,3,0.1553,-0.1902,0.9895,5.1679,1.8168,-1.7863,1.020
87.901,27.07,44.69,999.80,0.000000,0.000000,0.00,0,3,0.1614,-0.1909,0.9937,4.5191,2.1908,-1.8244,1.025
87.943,27.08,44.68,999.83,0.000000,0.000000,0.00,0,3,0.1626,-0.2026,1.0125,4.1374,4.2824,-2.0916,1.045
88.016,27.09,44.68,999.83,0.000000,0.000000,0.00,0,3,0.1587,-0.1987,1.0107,3.8855,4.1832,-2.6489,1.042
88.022,27.09,44.68,999.83,0.000000,0.000000,0.00,0,3,0.1536,-0.1985,1.0127,4.4427,4.3282,-2.9466,1.043
88.028,27.09,44.68,999.83,0.000000,0.000000,0.00,0,3,0.1575,-0.2036,1.0129,4.6718,4.5496,-3.1603,1.045
88.034,27.09,44.68,999.81,0.000000,0.000000,0.00,0,3,0.1550,-0.2031,1.0054,7.5344,3.5267,-4.5267,1.037
88.109,27.07,44.68,999.81,0.000000,0.000000,0.00,0,3,0.1494,-0.2056,1.0061,7.6412,3.3817,-4.3130,1.038
88.115,27.07,44.68,999.81,0.000000,0.000000,0.00,0,3,0.1482,-0.1960,1.0027,7.6565,2.8626,-4.3053,1.032
88.121,27.07,44.68,999.81,0.000000,0.000000,0.00,0,3,0.1626,-0.2014,1.0051,7.5649,2.8244,-4.2366,1.038
88.127,27.07,44.68,999.81,0.000000,0.000000,0.00,0,3,0.1494,-0.1980,0.9995,7.5573,2.4046,-3.8779,1.030
88.133,27.07,44.68,999.78,0.000000,0.000000,0.00,0,3,0.1609,-0.1934,0.9963,-1.7557,-1.1908,0.8702,1.028
88.458,27.09,44.66,999.86,0.000000,0.000000,0.00,0,3,0.1497,-0.1697,1.0083,1.7786,1.3588,-4.3282,1.033
88.464,27.09,44.66,999.86,0.000000,0.000000,0.00,0,3,0.1514,-0.1726,1.0088,2.7939,1.4580,-4.1908,1.035
88.470,27.09,44.66,999.86,0.000000,0.000000,0.00,0,3,0.1523,-0.1819,1.0059,3.5191,1.6183,-4.0916,1.033
88.476,27.09,44.66,999.86,0.000000,0.000000,0.00,0,3,0.1516,-0.1760,1.0122,4.7405,1.5420,-3.7099,1.039
88.482,27.09,44.66,999.86,0.000000,0.000000,0.00,0,3,0.1462,-0.1885,1.0056,5.5878,1.7786,-4.0000,1.034
88.488,27.09,44.66,999.86,0.000000,0.000000,0.00,0,3,0.1501,-0.1843,1.0139,5.8321,1.7939,-3.6412,1.041
88.494,27.09,44.74,999.83,0.000000,0.000000,0.00,0,3,0.1575,-0.1794,1.0090,6.0534,2.2214,-3.3969,1.037
88.500,27.09,44.74,999.83,0.000000,0.000000,0.00,0,3,0.1619,-0.1741,1.0068,5.8779,2.4427,-3.3511,1.035
88.506,27.09,44.74,999.83,0.000000,0.000000,0.00,0,3,0.1631,-0.1760,1.0032,5.6794,2.5878,-3.0687,1.031
88.512,27.09,44.74,999.83,0.000000,0.000000,0.00,0,3,0.1621,-0.1736,1.0037,5.5878,2.4733,-2.7099,1.031
88.631,27.07,44.66,999.83,0.000000,0.000000,0.00,0,3,0.1609,-0.1792,0.9976,2.8092,0.6641,-0.6718,1.026
88.637,27.07,44.66,999.83,0.000000,0.000000,0.00,0,3,0.1609,-0.1799,0.9971,2.7023,0.5191,-0.7252,1.026
88.643,27.07,44.66,999.83,0.000000,0.000000,0.00,0,3,0.1638,-0.1833,0.9941,2.4427,0.7099,-0.6107,1.024
88.649,27.07,44.66,999.83,0.000000,0.000000,0.00,0,3,0.1582,-0.1804,0.9929,2.1603,0.7634,-0.5725,1.022
88.655,27.07,44.66,999.83,0.000000,0.000000,0.00,0,3,0.1638,-0.1804,0.9983,2.0000,0.9160,-0.4046,1.028
88.661,27.07,44.66,999.83,0.000000,0.000000,0.00,0,3,0.1543,-0.1821,0.9951,1.8168,1.0534,-0.2672,1.023
88.667,27.10,44.65,999.84,0.000000,0.000000,0.00,0,3,0.1597,-0.1863,0.9966,3.6183,3.6794,0.5878,1.026
88.742,27.10,44.65,999.84,0.000000,0.000000,0.00,0,3,0.1616,-0.1941,0.9998,3.6107,3.9084,0.4733,1.031
88.748,27.10,44.65,999.84,0.000000,0.000000,0.00,0,3,0.1531,-0.1938,0.9958,3.7634,3.9618,0.4656,1.026
88.754,27.10,44.65,999.84,0.000000,0.000000,0.00,0,3,0.1572,-0.1931,0.9980,4.0534,4.1756,-0.0610,1.029
88.899,27.10,44.64,999.81,0.000000,0.000000,0.00,0,3,0.1587,-0.1829,1.0088,2.3588,3.4809,-0.3817,1.037
88.905,27.10,44.64,999.81,0.000000,0.000000,0.00,0,3,0.1477,-0.1814,1.0046,2.4962,3.4809,0.0610,1.032
88.911,27.10,44.64,999.81,0.000000,0.000000,0.00,0,3,0.1587,-0.1829,1.0071,2.7099,3.3282,0.1069,1.036
88.917,27.10,44.64,999.81,0.000000,0.000000,0.00,0,3,0.1521,-0.1875,1.0017,2.6031,3.0763,0.4046,1.030
88.923,27.10,44.64,999.81,0.000000,0.000000,0.00,0,3,0.1506,-0.1838,1.0037,2.3893,2.9160,0.3206,1.031
88.929,27.10,44.64,999.81,0.000000,0.000000,0.00,0,3,0.1514,-0.1775,0.9985,1.9542,2.9313,0.3969,1.025
88.935,27.10,44.64,999.81,0.000000,0.000000,0.00,0,3,0.1541,-0.1819,0.9924,1.4275,3.0076,0.3817,1.021
88.941,27.10,44.64,999.81,0.000000,0.000000,0.00,0,3,0.1519,-0.1848,0.9941,1.1069,2.9160,0.3053,1.023
88.947,27.10,44.64,999.81,0.000000,0.000000,0.00,0,3,0.1497,-0.1843,0.9998,0.9542,2.7557,0.5954,1.028
88.953,27.10,44.64,999.81,0.000000,0.000000,0.00,0,3,0.1472,-0.1799,0.9971,0.6412,2.5267,0.3206,1.024
89.138,27.10,44.63,999.82,0.000000,0.000000,0.00,0,3,0.1479,-0.1799,1.0037,-3.9237,-0.1145,-2.2519,1.030
89.144,27.10,44.63,999.82,0.000000,0.000000,0.00,0,3,0.1472,-0.1746,1.0056,-4.0229,-0.1527,-1.6107,1.031
89.150,27.10,44.63,999.82,0.000000,0.000000,0.00,0,3,0.1514,-0.1804,1.0056,-3.6947,-0.2519,-1.2366,1.033
89.157,27.10,44.67,999.79,0.000000,0.000000,0.00,0,3,0.1750,-0.1655,1.0144,-1.5725,-0.3359,3.7634,1.043
89.232,27.10,44.67,999.84,0.000000,0.000000,0.00,0,3,0.1506,-0.1929,1.0217,-1.6794,1.0763,2.9771,1.051
89.305,27.11,44.63,999.84,0.000000,0.000000,0.00,0,3,0.1428,-0.1982,1.0195,-1.8168,1.1985,2.4122,1.048
89.311,27.11,44.63,999.84,0.000000,0.000000,0.00,0,3,0.1455,-0.1931,1.0125,-1.8244,1.1450,1.8779,1.041
89.317,27.11,44.63,999.84,0.000000,0.000000,0.00,0,3,0.1394,-0.1875,1.0156,-1.5115,0.8321,1.4275,1.042
89.323,27.11,44.63,999.84,0.000000,0.000000,0.00,0,3,0.1265,-0.1858,1.0088,0.1527,-0.4504,-3.1145,1.034
89.363,27.11,44.63,999.84,0.000000,0.000000,0.00,0,3,0.1333,-0.1899,1.0061,0.3740,-0.4427,-3.3817,1.033
89.496,27.11,44.62,999.82,0.000000,0.000000,0.00,0,3,0.1838,-0.1619,0.9934,3.6183,2.0153,-0.1450,1.023
89.502,27.11,44.62,999.82,0.000000,0.000000,0.00,0,3,0.1853,-0.1528,0.9932,3.2977,1.7634,0.1832,1.022
89.508,27.11,44.62,999.82,0.000000,0.000000,0.00,0,3,0.1797,-0.1606,0.9890,3.1450,2.1221,0.3588,1.018
89.514,27.11,44.62,999.82,0.000000,0.000000,0.00,0,3,0.1763,-0.1621,0.9897,2.9695,1.6718,0.4962,1.018
89.520,27.11,44.62,999.82,0.000000,0.000000,0.00,0,3,0.1741,-0.1594,0.9927,2.4809,1.6260,0.6870,1.020
89.526,27.11,44.62,999.82,0.000000,0.000000,0.00,0,3,0.1736,-0.1570,0.9968,1.7634,1.6489,0.4885,1.024
89.532,27.11,44.62,999.82,0.000000,0.000000,0.00,0,3,0.1746,-0.1663,0.9971,1.6870,1.6107,0.6260,1.026
89.538,27.11,44.62,999.82,0.000000,0.000000,0.00,0,3,0.1775,-0.1648,0.9995,1.4275,1.2366,0.9695,1.028
89.544,27.11,44.62,999.82,0.000000,0.000000,0.00,0,3,0.1667,-0.1658,0.9985,1.3588,1.2443,0.7939,1.026
89.550,27.11,44.62,999.82,0.000000,0.000000,0.00,0,3,0.1707,-0.1626,1.0002,0.9466,1.3740,0.6794,1.028
89.785,27.11,44.61,999.82,0.000000,0.000000,0.00,0,3,0.1838,-0.1785,0.9932,-1.3435,-2.3969,0.3282,1.026
89.791,27.11,44.61,999.82,0.000000,0.000000,0.00,0,3,0.1809,-0.1714,0.9973,-1.8244,-2.2595,0.1221,1.028
89.797,27.11,44.61,999.82,0.000000,0.000000,0.00,0,3,0.1802,-0.1719,0.9954,-2.3359,-2.6412,0.2824,1.026
89.803,27.11,44.61,999.82,0.000000,0.000000,0.00,0,3,0.1697,-0.1687,0.9932,-2.5344,-2.6412,0.0992,1.022
89.808,27.11,44.61,999.82,0.000000,0.000000,0.00,0,3,0.1841,-0.1646,0.9910,-2.7481,-2.4198,0.0000,1.021
89.814,27.11,44.61,999.82,0.000000,0.000000,0.00,0,3,0.1768,-0.1648,0.9946,-2.5802,-2.2366,0.0534,1.024
89.820,27.11,44.61,999.82,0.000000,0.000000,0.00,0,3,0.1836,-0.1719,0.9941,-2.6794,-2.2137,0.1374,1.025
89.826,27.11,44.61,999.82,0.000000,0.000000,0.00,0,3,0.1716,-0.1714,1.0002,-2.5191,-2.2901,0.4275,1.029
89.832,27.11,44.61,999.82,0.000000,0.000000,0.00,0,3,0.1755,-0.1746,0.9961,-2.4504,-1.8855,0.6183,1.026
89.839,27.11,44.61,999.82,0.000000,0.000000,0.00,0,3,0.1689,-0.1763,1.0037,-2.2366,-1.6870,0.9924,1.033
89.976,27.11,44.60,999.84,0.000000,0.000000,0.00,0,3,0.2156,-0.1799,0.9836,3.8779,1.9313,-2.4733,1.023
89.982,27.11,44.60,999.84,0.000000,0.000000,0.00,0,3,0.1765,-0.1702,0.9919,3.4122,2.3435,-3.6641,1.022
89.988,27.11,44.60,999.84,0.000000,0.000000,0.00,0,3,0.1963,-0.1655,0.9878,3.3053,2.1908,-3.0840,1.021
89.994,27.11,44.60,999.81,0.000000,0.000000,0.00,0,3,0.1780,-0.1506,0.9963,3.8015,3.0229,-1.1298,1.023
90.069,27.09,44.60,999.81,0.000000,0.000000,0.00,0,3,0.1799,-0.1511,0.9976,3.6336,3.0076,-0.6031,1.025
90.075,27.09,44.60,999.81,0.000000,0.000000,0.00,0,3,0.1831,-0.1582,1.0042,3.8092,3.1908,-0.0992,1.033
90.081,27.09,44.60,999.81,0.000000,0.000000,0.00,0,3,0.1819,-0.1560,1.0046,3.4733,3.2061,0.4580,1.033
90.087,27.09,44.60,999.81,0.000000,0.000000,0.00,0,3,0.1794,-0.1462,1.0032,3.6641,3.6107,1.1450,1.030
90.093,27.09,44.60,999.81,0.000000,0.000000,0.00,0,3,0.1829,-0.1516,1.0037,3.4275,3.4962,1.7252,1.031
90.099,27.09,44.60,999.81,0.000000,0.000000,0.00,0,3,0.1675,-0.1543,0.9995,3.2977,3.5344,2.0076,1.025
90.226,27.09,44.60,999.80,0.000000,0.000000,0.00,0,3,0.1707,-0.1685,1.0037,0.2290,-0.5420,2.4504,1.032
90.232,27.09,44.60,999.80,0.000000,0.000000,0.00,0,3,0.1694,-0.1646,0.9954,0.4504,-0.2366,2.5038,1.023
90.238,27.09,44.60,999.80,0.000000,0.000000,0.00,0,3,0.2964,-0.1604,0.9526,0.9466,-0.2595,3.0076,1.010
90.244,27.09,44.60,999.80,0.000000,0.000000,0.00,0,3,0.1833,-0.1455,1.0044,0.0000,0.3435,2.8397,1.031
90.250,27.09,44.60,999.84,0.000000,0.000000,0.00,0,3,0.1707,-0.1785,1.0159,0.9618,0.4580,2.4962,1.045
90.256,27.11,44.60,999.84,0.000000,0.000000,0.00,0,3,0.2053,-0.1785,1.0034,1.4580,0.3664,2.8931,1.040
90.262,27.11,44.60,999.84,0.000000,0.000000,0.00,0,3,0.1721,-0.1738,0.9995,1.4809,0.4351,2.5573,1.029
90.268,27.11,44.60,999.84,0.000000,0.000000,0.00,0,3,0.1895,-0.1758,0.9988,1.5038,1.1908,3.1374,1.032
90.274,27.11,44.60,999.84,0.000000,0.000000,0.00,0,3,0.1792,-0.1687,0.9995,1.3893,1.0534,2.6641,1.029
90.280,27.11,44.60,999.84,0.000000,0.000000,0.00,0,3,0.1853,-0.1731,0.9956,1.2061,1.7176,2.9618,1.027
90.324,27.11,44.60,999.84,0.000000,0.000000,0.00,0,3,0.1694,-0.1890,1.0010,3.6641,3.2595,2.0611,1.033
90.330,27.11,44.60,999.84,0.000000,0.000000,0.00,0,3,0.1697,-0.1787,0.9993,3.9618,3.6183,1.7634,1.029
90.336,27.11,44.60,999.84,0.000000,0.000000,0.00,0,3,0.1741,-0.1824,1.0063,3.8473,3.8092,1.5191,1.037
90.342,27.11,44.60,999.84,0.000000,0.000000,0.00,0,3,0.1748,-0.1902,1.0042,3.9466,3.7786,1.3664,1.037
90.348,27.11,44.55,999.77,0.000000,0.000000,0.00,0,3,0.1716,-0.1909,0.9995,4.1679,3.8244,1.4122,1.032
90.354,27.08,44.55,999.77,0.000000,0.000000,0.00,0,3,0.1689,-0.1851,1.0012,4.2977,3.9771,0.9771,1.032
90.360,27.08,44.55,999.77,0.000000,0.000000,0.00,0,3,0.1685,-0.1860,1.0034,4.8931,4.0305,0.6870,1.034
90.366,27.08,44.59,999.82,0.000000,0.000000,0.00,0,3,0.1638,-0.1638,1.0076,1.0382,2.0840,-0.4427,1.034
90.511,27.11,44.59,999.82,0.000000,0.000000,0.00,0,3,0.1628,-0.1621,1.0061,0.6718,1.6260,-0.0687,1.032
90.517,27.11,44.59,999.82,0.000000,0.000000,0.00,0,3,0.1616,-0.1665,1.0078,0.5267,1.6336,0.1069,1.034
90.666,27.12,44.57,999.83,0.000000,0.000000,0.00,0,3,0.1624,-0.2195,1.0066,-0.8626,-0.3893,-2.3282,1.043
90.672,27.12,44.57,999.83,0.000000,0.000000,0.00,0,3,0.1624,-0.2153,0.9973,-1.8473,-0.3282,-2.8550,1.033
90.677,27.12,44.57,999.83,0.000000,0.000000,0.00,0,3,0.1731,-0.2124,1.0007,-2.0916,-0.6718,-3.7405,1.038
90.683,27.12,44.57,999.83,0.000000,0.000000,0.00,0,3,0.1702,-0.2141,0.9998,-2.5649,-0.6107,-4.8473,1.036
90.689,27.12,44.57,999.83,0.000000,0.000000,0.00,0,3,0.1689,-0.2065,0.9954,-2.6412,-0.7557,-5.5038,1.031
90.695,27.12,44.57,999.83,0.000000,0.000000,0.00,0,3,0.1628,-0.2000,0.9963,-2.8397,-0.8855,-6.0763,1.029
90.701,27.12,44.57,999.83,0.000000,0.000000,0.00,0,3,0.1814,-0.1941,0.9861,-2.6565,-0.5725,-6.8779,1.021
90.707,27.12,44.57,999.83,0.000000,0.000000,0.00,0,3,0.1707,-0.1987,0.9854,-2.5038,-0.4962,-7.2137,1.020
90.713,27.12,44.57,999.83,0.000000,0.000000,0.00,0,3,0.1775,-0.1943,0.9902,-2.2137,-0.2672,-7.6489,1.025
90.719,27.12,44.57,999.83,0.000000,0.000000,0.00,0,3,0.1780,-0.1924,0.9919,-1.6412,0.2061,-7.7557,1.026
90.880,27.12,44.57,999.83,0.000000,0.000000,0.00,0,3,0.1350,-0.1592,0.9915,8.1985,15.6183,5.4504,1.013
90.886,27.12,44.57,999.83,0.000000,0.000000,0.00,0,3,0.1401,-0.1650,0.9919,8.6947,15.5191,5.1527,1.015
90.892,27.12,44.57,999.83,0.000000,0.000000,0.00,0,3,0.1426,-0.1736,0.9924,8.8168,15.2290,5.0076,1.018
90.898,27.12,44.57,999.83,0.000000,0.000000,0.00,0,3,0.1375,-0.1716,0.9968,9.0840,14.6260,4.4885,1.021
90.904,27.12,44.57,999.83,0.000000,0.000000,0.00,0,3,0.1436,-0.1802,0.9905,9.0153,14.4046,4.1298,1.017
90.909,27.12,44.57,999.83,0.000000,0.000000,0.00,0,3,0.1492,-0.1758,0.9827,8.8092,13.6641,3.3511,1.009
90.916,27.12,44.57,999.83,0.000000,0.000000,0.00,0,3,0.0131,-0.1470,1.0752,10.0916,12.8702,2.9008,1.085
90.921,27.12,44.57,999.83,0.000000,0.000000,0.00,0,3,0.2144,-0.2087,0.9543,7.7328,12.5038,2.2137,1.000
90.927,27.12,44.57,999.83,0.000000,0.000000,0.00,0,3,0.1277,-0.1650,0.9805,7.3130,11.9084,1.0076,1.002
90.933,27.12,44.57,999.83,0.000000,0.000000,0.00,0,3,0.1733,-0.1904,1.0034,6.7634,11.9313,0.6412,1.036
91.079,27.12,44.56,999.84,0.000000,0.000000,0.00,0,3,0.1592,-0.1687,0.9912,-0.3359,2.5725,-8.6183,1.018
91.085,27.12,44.56,999.84,0.000000,0.000000,0.00,0,3,0.1455,-0.1667,1.0000,-0.3893,2.3435,-8.5191,1.024
91.091,27.12,44.56,999.84,0.000000,0.000000,0.00,0,3,0.1438,-0.1655,1.0085,-0.4046,2.4046,-8.5420,1.032
91.097,27.12,44.56,999.84,0.000000,0.000000,0.00,0,3,0.1306,-0.1692,1.0127,-0.6412,2.5878,-8.1908,1.035
91.102,27.12,44.56,999.84,0.000000,0.000000,0.00,0,3,0.1265,-0.1677,1.0173,-0.9313,2.8550,-7.7634,1.039
91.108,27.12,44.56,999.84,0.000000,0.000000,0.00,0,3,0.1213,-0.1746,1.0308,-0.9008,3.3053,-7.4351,1.052
91.114,27.12,44.56,999.84,0.000000,0.000000,0.00,0,3,0.1223,-0.1775,1.0337,-0.9771,3.7863,-6.4351,1.056
91.120,27.12,44.56,999.84,0.000000,0.000000,0.00,0,3,0.1038,-0.1768,1.0430,-1.0840,4.2061,-6.1145,1.063
91.126,27.12,44.56,999.84,0.000000,0.000000,0.00,0,3,0.0952,-0.1741,1.0444,-0.8321,4.7557,-5.2595,1.063
91.132,27.12,44.57,999.83,0.000000,0.000000,0.00,0,3,0.0944,-0.1833,1.0530,-0.2137,5.2290,-4.2901,1.073
91.319,27.12,44.55,999.83,0.000000,0.000000,0.00,0,3,0.1318,-0.1538,1.0122,-6.2519,-4.0840,-4.6412,1.032
91.325,27.12,44.55,999.85,0.000000,0.000000,0.00,0,3,0.1228,-0.1353,1.0225,-7.0305,-4.2137,-3.9237,1.039
91.330,27.13,44.54,999.85,0.000000,0.000000,0.00,0,3,0.1194,-0.1421,1.0208,-6.4351,-4.1832,-3.6107,1.037
91.337,27.13,44.54,999.85,0.000000,0.000000,0.00,0,3,0.1138,-0.1580,1.0024,-2.9466,-1.6870,0.0992,1.021
91.412,27.13,44.54,999.85,0.000000,0.000000,0.00,0,3,0.1235,-0.1543,1.0044,-2.7099,-1.4504,-0.4275,1.024
91.418,27.13,44.54,999.85,0.000000,0.000000,0.00,0,3,0.1277,-0.1487,0.9968,-2.5649,-1.5802,-0.9237,1.016
91.424,27.13,44.54,999.83,0.000000,0.000000,0.00,0,3,0.1309,-0.1458,1.0024,-2.2748,-1.4122,-0.9924,1.021
91.430,27.12,44.54,999.83,0.000000,0.000000,0.00,0,3,0.1348,-0.1501,1.0029,-2.0992,-0.6870,-1.1069,1.023
91.436,27.12,44.54,999.83,0.000000,0.000000,0.00,0,3,0.1484,-0.1553,1.0132,-1.1069,-1.7481,-1.1756,1.036
91.441,27.12,44.54,999.83,0.000000,0.000000,0.00,0,3,0.1272,-0.1587,0.9968,-0.1985,-1.6489,-1.9084,1.017
91.628,27.13,44.54,999.85,0.000000,0.000000,0.00,0,3,0.1367,-0.1372,0.9973,-6.0458,-0.0458,-2.7481,1.016
91.634,27.13,44.54,999.85,0.000000,0.000000,0.00,0,3,0.1304,-0.1196,1.0066,-5.5344,0.1298,-2.8702,1.022
91.640,27.13,44.54,999.85,0.000000,0.000000,0.00,0,3,0.1436,-0.1284,1.0044,-4.9313,0.4046,-2.9084,1.023
91.646,27.13,44.54,999.85,0.000000,0.000000,0.00,0,3,0.1458,-0.1309,1.0034,-4.5649,0.3359,-3.2214,1.022
91.652,27.13,44.54,999.85,0.000000,0.000000,0.00,0,3,0.1409,-0.1279,1.0063,-4.0840,0.8931,-3.3817,1.024
91.658,27.13,44.54,999.85,0.000000,0.000000,0.00,0,3,0.1440,-0.1201,1.0107,-3.4733,0.8473,-3.1145,1.028
91.664,27.13,44.54,999.85,0.000000,0.000000,0.00,0,3,0.1404,-0.1184,1.0098,-2.7939,1.0840,-2.9847,1.026
91.670,27.13,44.54,999.85,0.000000,0.000000,0.00,0,3,0.1355,-0.1177,1.0173,-2.5267,1.5725,-3.1603,1.033
91.676,27.13,44.54,999.85,0.000000,0.000000,0.00,0,3,0.1367,-0.1238,1.0129,-1.8931,1.8931,-3.1756,1.030
91.682,27.13,44.54,999.85,0.000000,0.000000,0.00,0,3,0.1289,-0.1199,1.0142,-1.1985,2.1832,-3.0153,1.029
91.890,27.13,44.54,999.84,0.000000,0.000000,0.00,0,3,0.1489,-0.1450,1.0085,4.2443,1.2061,2.4427,1.030
91.895,27.13,44.54,999.84,0.000000,0.000000,0.00,0,3,0.1482,-0.1357,1.0085,4.3588,1.3740,2.4885,1.028
91.901,27.13,44.54,999.84,0.000000,0.000000,0.00,0,3,0.1394,-0.1433,1.0076,4.0687,1.1069,2.6031,1.027
91.907,27.13,44.54,999.84,0.000000,0.000000,0.00,0,3,0.1436,-0.1433,1.0137,3.8931,1.1069,3.0763,1.034
91.913,27.13,44.49,999.85,0.000000,0.000000,0.00,0,3,0.1523,-0.1450,1.0098,3.7786,1.1527,3.1756,1.031
91.919,27.13,44.49,999.85,0.000000,0.000000,0.00,0,3,0.1387,-0.1482,1.0066,3.6870,1.1374,2.9847,1.027
91.925,27.13,44.49,999.85,0.000000,0.000000,0.00,0,3,0.1460,-0.1494,1.0056,3.7634,0.9924,3.0534,1.027
91.931,27.13,44.49,999.85,0.000000,0.000000,0.00,0,3,0.1445,-0.1499,1.0081,3.2901,1.0840,2.7634,1.029
91.937,27.13,44.49,999.85,0.000000,0.000000,0.00,0,3,0.1433,-0.1553,1.0066,3.1832,1.0840,2.7710,1.029
91.943,27.13,44.49,999.85,0.000000,0.000000,0.00,0,3,0.1511,-0.1587,1.0061,2.8855,1.0000,2.5954,1.030
92.119,27.13,44.53,999.83,0.000000,0.000000,0.00,0,3,0.1567,-0.1345,1.0007,1.6031,1.2824,-1.5267,1.022
92.125,27.13,44.53,999.83,0.000000,0.000000,0.00,0,3,0.1597,-0.1328,0.9971,1.4656,1.5038,-1.3359,1.018
92.131,27.13,44.53,999.83,0.000000,0.000000,0.00,0,3,0.1543,-0.1292,1.0083,1.5344,1.5420,-0.9924,1.028
92.137,27.13,44.53,999.83,0.000000,0.000000,0.00,0,3,0.1477,-0.1304,0.9976,1.8092,1.6870,-0.9695,1.017
92.143,27.13,44.53,999.83,0.000000,0.000000,0.00,0,3,0.1440,-0.1301,0.9990,2.1221,1.5878,-0.8244,1.018
92.149,27.13,44.53,999.83,0.000000,0.000000,0.00,0,3,0.1584,-0.1372,0.9980,2.3130,1.6794,-0.6260,1.020
92.155,27.13,44.53,999.83,0.000000,0.000000,0.00,0,3,0.1472,-0.1323,1.0042,2.4733,1.8473,-0.2519,1.023
92.161,27.13,44.53,999.83,0.000000,0.000000,0.00,0,3,0.1487,-0.1257,0.9951,2.4046,1.8855,-0.2748,1.014
92.167,27.13,44.53,999.83,0.000000,0.000000,0.00,0,3,0.1541,-0.1287,0.9968,2.4427,1.7863,0.2366,1.017
92.173,27.13,44.53,999.83,0.000000,0.000000,0.00,0,3,0.1628,-0.1301,1.0015,2.0305,2.0305,0.2290,1.023
92.583,27.13,44.51,999.84,0.000000,0.000000,0.00,0,3,0.0947,-0.1384,1.0295,5.0611,5.8321,0.4275,1.043
92.589,27.13,44.51,999.84,0.000000,0.000000,0.00,0,3,0.1248,-0.1995,1.0239,6.3206,4.5420,-0.5038,1.051
92.596,27.13,44.50,999.83,0.000000,0.000000,0.00,0,3,0.0979,-0.1357,0.9927,6.4275,5.2824,-0.1069,1.007
92.602,27.13,44.50,999.83,0.000000,0.000000,0.00,0,3,0.0832,-0.1218,1.0366,7.3969,5.0000,-0.2748,1.047
92.608,27.13,44.50,999.83,0.000000,0.000000,0.00,0,3,0.1082,-0.1318,1.0125,7.5954,4.5573,-1.3511,1.027
92.614,27.13,44.50,999.83,0.000000,0.000000,0.00,0,3,0.1123,-0.1179,1.0112,7.8321,4.3893,-1.1832,1.024
92.620,27.13,44.50,999.83,0.000000,0.000000,0.00,0,3,0.1057,-0.1331,1.0154,8.1221,4.0076,-1.6947,1.030
92.626,27.11,44.50,999.82,0.000000,0.000000,0.00,0,3,0.1472,-0.1355,1.0107,5.4351,0.5420,-0.7023,1.030
92.701,27.11,44.50,999.82,0.000000,0.000000,0.00,0,3,0.1519,-0.1228,1.0063,5.2061,0.5954,-0.6947,1.025
92.707,27.11,44.50,999.82,0.000000,0.000000,0.00,0,3,0.1592,-0.1165,1.0112,4.5878,0.6260,-0.3053,1.030
92.849,27.11,44.50,999.77,0.000000,0.000000,0.00,0,3,0.1458,-0.1416,1.0068,0.7863,0.5115,1.0763,1.027
92.855,27.11,44.50,999.77,0.000000,0.000000,0.00,0,3,0.1357,-0.1470,1.0134,0.5649,0.9924,1.1374,1.033
92.861,27.11,44.50,999.77,0.000000,0.000000,0.00,0,3,0.1438,-0.1423,1.0154,0.4962,1.2443,0.6260,1.035
92.867,27.11,44.50,999.77,0.000000,0.000000,0.00,0,3,0.1487,-0.1504,1.0181,0.4275,1.1374,0.8473,1.040
92.872,27.11,44.50,999.77,0.000000,0.000000,0.00,0,3,0.1370,-0.1504,1.0137,0.8855,1.4885,0.5496,1.034
92.878,27.11,44.50,999.77,0.000000,0.000000,0.00,0,3,0.1460,-0.1394,1.0210,0.7099,2.0000,0.5573,1.041
92.884,27.11,44.50,999.77,0.000000,0.000000,0.00,0,3,0.1399,-0.1455,1.0261,1.0382,2.0763,0.2901,1.046
92.890,27.14,44.51,999.85,0.000000,0.000000,0.00,0,3,0.1372,-0.1482,1.0220,0.8473,2.3053,0.2977,1.042
92.896,27.14,44.51,999.85,0.000000,0.000000,0.00,0,3,0.1418,-0.1423,1.0198,0.8397,2.4885,0.3740,1.039
92.902,27.14,44.51,999.85,0.000000,0.000000,0.00,0,3,0.1382,-0.1382,1.0176,0.9466,2.6794,0.1908,1.036
93.065,27.12,44.49,999.80,0.000000,0.000000,0.00,0,3,0.1108,-0.1313,1.0203,3.1985,3.3130,0.8550,1.035
93.071,27.12,44.49,999.80,0.000000,0.000000,0.00,0,3,0.1233,-0.1411,1.0186,3.0534,3.5878,0.5954,1.036
93.077,27.12,44.49,999.80,0.000000,0.000000,0.00,0,3,0.1174,-0.1331,1.0171,2.8626,3.4809,0.7557,1.032
93.083,27.12,44.49,999.80,0.000000,0.000000,0.00,0,3,0.1128,-0.1777,0.9854,3.6031,3.6794,0.8168,1.008
93.089,27.14,44.51,999.81,0.000000,0.000000,0.00,0,3,0.1333,-0.1370,1.0017,2.8550,3.1679,0.5878,1.020
93.095,27.14,44.51,999.81,0.000000,0.000000,0.00,0,3,0.1160,-0.1218,1.0181,2.8397,2.9237,0.2519,1.032
93.101,27.14,44.51,999.81,0.000000,0.000000,0.00,0,3,0.1221,-0.1646,1.0049,3.4504,2.7176,0.3817,1.026
93.107,27.14,44.51,999.81,0.000000,0.000000,0.00,0,3,0.1272,-0.1350,1.0034,2.8626,2.3664,0.1527,1.020
93.113,27.14,44.51,999.81,0.000000,0.000000,0.00,0,3,0.1187,-0.1370,1.0190,2.7710,2.4275,-0.0076,1.035
93.119,27.14,44.51,999.81,0.000000,0.000000,0.00,0,3,0.1025,-0.1182,1.0149,2.9389,1.7710,-0.3206,1.027
93.266,27.11,44.48,999.77,0.000000,0.000000,0.00,0,3,0.1560,-0.1187,1.0017,2.4046,0.5496,-1.4885,1.021
93.272,27.11,44.48,999.82,0.000000,0.000000,0.00,0,3,0.1404,-0.1340,1.0110,1.1908,5.0534,3.1298,1.029
93.346,27.14,44.51,999.82,0.000000,0.000000,0.00,0,3,0.1294,-0.1382,1.0110,1.1679,5.2519,3.3740,1.029
93.352,27.14,44.51,999.82,0.000000,0.000000,0.00,0,3,0.1292,-0.1384,1.0208,1.4733,5.3130,3.7557,1.038
93.358,27.14,44.51,999.82,0.000000,0.000000,0.00,0,3,0.1255,-0.1472,1.0173,1.7023,5.3588,4.0611,1.036
93.364,27.14,44.51,999.82,0.000000,0.000000,0.00,0,3,0.1143,-0.1338,1.0168,2.1527,5.4046,4.3664,1.032
93.370,27.14,44.51,999.82,0.000000,0.000000,0.00,0,3,0.1184,-0.1479,1.0178,2.5267,4.6412,4.2366,1.035
93.376,27.14,44.51,999.82,0.000000,0.000000,0.00,0,3,0.1094,-0.1516,1.0300,3.2595,5.2595,4.3206,1.047
93.382,27.14,44.58,999.84,0.000000,0.000000,0.00,0,3,0.1121,-0.1379,1.0159,3.2595,4.5725,4.1985,1.031
93.388,27.14,44.58,999.84,0.000000,0.000000,0.00,0,3,0.1177,-0.1445,1.0195,3.3435,4.4351,3.8779,1.036
93.522,27.13,44.47,999.80,0.000000,0.000000,0.00,0,3,0.1243,-0.1348,0.9941,2.8779,2.8550,0.4427,1.011
93.597,27.14,44.48,999.82,0.000000,0.000000,0.00,0,3,0.1211,-0.1331,0.9956,2.7481,3.0840,0.5496,1.012
93.603,27.14,44.48,999.81,0.000000,0.000000,0.00,0,3,0.1316,-0.1394,1.0156,3.2901,3.8168,0.2748,1.034
93.678,27.13,44.46,999.81,0.000000,0.000000,0.00,0,3,0.1274,-0.1362,1.0188,3.5573,3.9084,0.3206,1.036
93.684,27.13,44.46,999.83,0.000000,0.000000,0.00,0,3,0.1052,-0.1394,0.9949,10.4046,3.5573,0.3664,1.010
93.826,27.13,44.47,999.83,0.000000,0.000000,0.00,0,3,0.1042,-0.1460,0.9980,11.1298,3.5725,-0.3282,1.014
93.832,27.13,44.47,999.83,0.000000,0.000000,0.00,0,3,0.1113,-0.1387,0.9905,12.2214,3.3053,-0.2290,1.006
93.838,27.13,44.47,999.83,0.000000,0.000000,0.00,0,3,0.0944,-0.1431,0.9885,12.6412,3.4122,-0.6565,1.003
93.844,27.13,44.47,999.83,0.000000,0.000000,0.00,0,3,0.1023,-0.1367,0.9902,13.0458,3.8626,-0.6870,1.005
93.850,27.13,44.47,999.83,0.000000,0.000000,0.00,0,3,0.0957,-0.1418,0.9836,13.1374,4.0076,-1.1298,0.998
93.892,27.14,44.44,999.82,0.000000,0.000000,0.00,0,3,0.0815,-0.1809,0.9629,25.3206,7.8168,-3.7252,0.983
93.966,27.14,44.46,999.82,0.000000,0.000000,0.00,0,3,0.1602,-0.1199,1.0032,3.5267,5.5878,-19.1145,1.023
94.110,27.14,44.46,999.82,0.000000,0.000000,0.00,0,3,0.1704,-0.1206,1.0085,3.8855,5.5267,-19.3817,1.030
94.116,27.14,44.45,999.82,0.000000,0.000000,0.00,0,3,0.0815,-0.0632,1.0061,9.7252,10.5038,-17.9466,1.011
94.191,27.14,44.45,999.82,0.000000,0.000000,0.00,0,3,0.1016,-0.0747,1.0093,9.9084,10.7023,-18.2824,1.017
94.197,27.14,44.45,999.82,0.000000,0.000000,0.00,0,3,0.0947,-0.0449,1.0066,9.6947,10.5649,-17.8015,1.012
94.203,27.14,44.45,999.82,0.000000,0.000000,0.00,0,3,0.0813,-0.0505,1.0107,8.6565,11.7786,-17.4809,1.015
94.209,27.14,44.45,999.82,0.000000,0.000000,0.00,0,3,0.0825,-0.0432,1.0166,7.0534,12.3206,-16.6870,1.021
94.215,27.14,44.46,999.79,0.000000,0.000000,0.00,0,3,0.0888,0.0615,1.0022,12.6565,19.4198,-9.2061,1.008
94.289,27.14,44.46,999.79,0.000000,0.000000,0.00,0,3,0.0876,0.0610,0.9978,16.4886,18.9847,-8.2824,1.004
94.415,27.14,44.45,999.81,0.000000,0.000000,0.00,0,3,0.0900,-0.0639,1.0945,8.8473,6.0687,1.6794,1.100
94.421,27.14,44.45,999.81,0.000000,0.000000,0.00,0,3,0.0795,-0.0803,1.1013,5.1527,5.9924,1.8779,1.107
94.427,27.14,44.45,999.81,0.000000,0.000000,0.00,0,3,0.0722,-0.0900,1.1160,1.4504,5.7252,2.7023,1.122
94.433,27.14,44.45,999.81,0.000000,0.000000,0.00,0,3,0.0695,-0.0876,1.1089,-2.6183,5.6870,2.8931,1.115
94.439,27.14,44.45,999.81,0.000000,0.000000,0.00,0,3,0.0771,-0.0700,1.0913,-6.5725,5.2214,2.8702,1.096
94.445,27.14,44.47,999.83,0.000000,0.000000,0.00,0,3,-0.0849,-0.0747,1.0837,-39.2061,0.7557,-4.8855,1.090
94.519,27.15,44.47,999.83,0.000000,0.000000,0.00,0,3,-0.0527,-0.0898,1.1116,-37.0916,0.9237,-4.6183,1.116
94.525,27.15,44.47,999.83,0.000000,0.000000,0.00,0,3,-0.0810,-0.0927,1.0911,-34.8626,-0.1298,-3.7176,1.098
94.532,27.15,44.47,999.83,0.000000,0.000000,0.00,0,3,0.0241,0.0444,1.1726,-37.2595,2.1832,-1.0382,1.174
94.538,27.15,44.47,999.83,0.000000,0.000000,0.00,0,3,-0.0405,-0.0007,1.0818,-33.3053,-0.9695,-2.4733,1.083
94.715,27.15,44.45,999.81,0.000000,0.000000,0.00,0,3,-0.0012,-0.0922,0.9751,-29.1679,0.8321,-9.6947,0.979
94.721,27.15,44.45,999.81,0.000000,0.000000,0.00,0,3,-0.0127,-0.1179,0.9844,-29.7786,0.8015,-9.6794,0.991
94.727,27.15,44.45,999.81,0.000000,0.000000,0.00,0,3,0.0039,-0.1028,0.9895,-29.0382,0.5878,-9.2137,0.995
94.733,27.15,44.45,999.81,0.000000,0.000000,0.00,0,3,-0.0175,-0.1143,0.9912,-27.6565,0.0305,-9.0763,0.998
94.739,27.15,44.45,999.81,0.000000,0.000000,0.00,0,3,-0.0271,-0.1172,0.9893,-25.6947,-0.1527,-8.2977,0.997
94.745,27.15,44.45,999.81,0.000000,0.000000,0.00,0,3,-0.0275,-0.1091,0.9951,-22.9924,-0.7557,-7.4351,1.001
94.751,27.16,44.48,999.83,0.000000,0.000000,0.00,0,3,-0.0263,-0.1108,0.9885,-20.0305,-1.6641,-6.3130,0.995
94.757,27.16,44.48,999.83,0.000000,0.000000,0.00,0,3,-0.0188,-0.1038,0.9949,-16.5649,-2.1298,-5.5573,1.000
94.763,27.16,44.48,999.83,0.000000,0.000000,0.00,0,3,-0.0263,-0.1143,0.9836,-14.2214,-2.7634,-4.0305,0.991
94.769,27.16,44.48,999.83,0.000000,0.000000,0.00,0,3,-0.0170,-0.1165,0.9802,-12.4809,-3.2061,-3.3817,0.987
94.915,27.13,44.43,999.80,0.000000,0.000000,0.00,0,3,0.0043,-0.0246,0.9417,-24.9237,10.2748,1.2061,0.942
94.921,27.13,44.43,999.80,0.000000,0.000000,0.00,0,3,0.0061,-0.0278,0.9436,-23.4351,11.3206,2.0687,0.944
94.927,27.13,44.43,999.80,0.000000,0.000000,0.00,0,3,-0.0273,-0.0310,0.9380,-23.1145,12.3206,2.6641,0.939
94.933,27.13,44.43,999.80,0.000000,0.000000,0.00,0,3,-0.0253,-0.0461,0.9460,-22.1298,13.1450,3.4122,0.948
94.939,27.13,44.43,999.80,0.000000,0.000000,0.00,0,3,-0.0363,-0.0515,0.9424,-20.7023,13.8092,3.7786,0.944
94.945,27.16,44.42,999.81,0.000000,0.000000,0.00,0,3,-0.0393,-0.0642,0.9292,-19.2595,14.6031,4.1679,0.932
94.951,27.16,44.42,999.81,0.000000,0.000000,0.00,0,3,-0.0603,-0.0615,0.9207,-18.0000,15.1069,4.2366,0.925
94.957,27.16,44.42,999.81,0.000000,0.000000,0.00,0,3,-0.0607,-0.0832,0.9329,-16.6031,15.8779,4.4427,0.939
94.963,27.16,44.42,999.81,0.000000,0.000000,0.00,0,3,-0.0617,-0.0864,0.9326,-14.0534,16.5649,4.5115,0.939
94.969,27.16,44.42,999.81,0.000000,0.000000,0.00,0,3,-0.0432,-0.0905,0.9480,-10.5573,16.3588,4.2443,0.953
95.128,27.12,44.43,999.74,0.000000,0.000000,0.00,0,3,-0.0502,-0.0727,1.0183,14.4580,13.4122,14.4580,1.022
95.134,27.12,44.43,999.74,0.000000,0.000000,0.00,0,3,-0.0368,-0.1157,1.0020,10.9160,12.9924,14.4504,1.009
95.140,27.16,44.45,999.86,0.000000,0.000000,0.00,0,3,-0.0317,-0.0893,1.0078,7.1145,12.6565,16.0534,1.012
95.146,27.16,44.45,999.86,0.000000,0.000000,0.00,0,3,-0.0500,-0.1023,0.9968,3.2443,11.9695,16.3359,1.003
95.152,27.16,44.45,999.86,0.000000,0.000000,0.00,0,3,-0.0429,-0.1191,0.9810,0.0839,10.0916,16.7176,0.989
95.158,27.16,44.45,999.86,0.000000,0.000000,0.00,0,3,-0.0615,-0.1018,1.0068,-3.6794,10.2595,17.3282,1.014
95.164,27.16,44.45,999.86,0.000000,0.000000,0.00,0,3,-0.0432,-0.0913,0.9824,-7.1069,8.8397,17.7252,0.988
95.170,27.16,44.45,999.86,0.000000,0.000000,0.00,0,3,-0.0515,-0.0781,1.0276,-9.7023,8.5496,17.0229,1.032
95.176,27.16,44.45,999.86,0.000000,0.000000,0.00,0,3,-0.0710,-0.1572,1.0232,-12.2824,5.9160,14.4580,1.038
95.182,27.16,44.45,999.86,0.000000,0.000000,0.00,0,3,-0.0932,-0.0534,1.0408,-14.4122,6.1756,16.6794,1.046
95.355,27.16,44.43,999.80,0.000000,0.000000,0.00,0,3,0.0847,0.0007,0.9812,-13.1908,-20.0382,1.6870,0.985
95.361,27.16,44.43,999.80,0.000000,0.000000,0.00,0,3,0.1003,-0.0085,0.9915,-16.5267,-19.0000,1.2977,0.997
95.367,27.16,44.43,999.80,0.000000,0.000000,0.00,0,3,0.0927,0.0131,0.9849,-19.2519,-18.7176,2.1374,0.989
95.373,27.16,44.43,999.80,0.000000,0.000000,0.00,0,3,0.0634,-0.0058,0.9841,-21.6183,-17.4809,2.4962,0.986
95.379,27.16,44.43,999.80,0.000000,0.000000,0.00,0,3,0.0441,0.0041,0.9866,-23.0153,-17.0229,3.8321,0.988
95.385,27.16,44.43,999.80,0.000000,0.000000,0.00,0,3,0.0405,0.0007,0.9858,-24.6641,-16.3740,4.2901,0.987
95.391,27.16,44.43,999.80,0.000000,0.000000,0.00,0,3,0.0136,0.0056,0.9614,-26.9389,-15.3053,5.2061,0.962
95.397,27.16,44.43,999.80,0.000000,0.000000,0.00,0,3,0.0112,-0.0114,0.9758,-27.9237,-14.1756,6.0458,0.976
95.403,27.16,44.43,999.80,0.000000,0.000000,0.00,0,3,-0.0031,-0.0031,0.9617,-29.2137,-13.2443,7.0000,0.962
95.409,27.16,44.43,999.80,0.000000,0.000000,0.00,0,3,-0.0127,0.0109,0.9675,-29.5802,-12.1679,7.9695,0.968
95.560,27.16,44.43,999.83,0.000000,0.000000,0.00,0,3,0.0686,-0.1125,1.0527,14.9771,3.6794,1.2137,1.061
95.565,27.16,44.43,999.83,0.000000,0.000000,0.00,0,3,0.0661,-0.1155,1.0598,14.5725,4.5649,1.1908,1.068
95.571,27.16,44.43,999.83,0.000000,0.000000,0.00,0,3,0.0749,-0.1235,1.0632,14.0229,5.2443,0.3893,1.073
95.578,27.16,44.43,999.83,0.000000,0.000000,0.00,0,3,0.0134,-0.0068,1.1335,14.2519,5.7634,1.0611,1.134
95.584,27.16,44.43,999.83,0.000000,0.000000,0.00,0,3,0.0932,-0.1475,1.0981,12.6565,4.8702,-1.8702,1.112
95.590,27.16,44.43,999.83,0.000000,0.000000,0.00,0,3,0.0498,-0.1150,1.0488,12.2519,6.0076,0.1374,1.056
95.596,27.16,44.43,999.83,0.000000,0.000000,0.00,0,3,0.0505,-0.1257,1.0420,11.8550,7.0153,-1.9237,1.051
95.602,27.16,44.43,999.83,0.000000,0.000000,0.00,0,3,0.0476,-0.1238,1.0442,12.1450,6.7099,-2.6260,1.053
95.609,27.15,44.47,999.80,0.000000,0.000000,0.00,0,3,0.0214,-0.1328,0.9905,6.3740,5.2137,-11.3130,1.000
95.683,27.15,44.47,999.80,0.000000,0.000000,0.00,0,3,0.0070,-0.1196,0.9829,6.2061,5.5954,-11.5115,0.990
95.804,27.16,44.43,999.83,0.000000,0.000000,0.00,0,3,0.0698,-0.0732,1.0146,14.1069,4.3969,2.0229,1.020
95.810,27.16,44.43,999.83,0.000000,0.000000,0.00,0,3,0.0778,-0.0734,1.0120,13.4504,4.2137,2.6031,1.018
95.816,27.16,44.43,999.83,0.000000,0.000000,0.00,0,3,0.0715,-0.0737,1.0076,12.5115,3.8626,3.4962,1.013
95.822,27.16,44.39,999.85,0.000000,0.000000,0.00,0,3,0.0800,-0.0781,1.0134,11.4351,3.6489,4.0229,1.020
95.828,27.16,44.39,999.85,0.000000,0.000000,0.00,0,3,0.0888,-0.0773,1.0149,9.9695,3.3511,4.3511,1.022
95.834,27.16,44.39,999.85,0.000000,0.000000,0.00,0,3,0.0400,-0.0378,1.0007,7.9542,2.8397,4.0534,1.002
95.840,27.16,44.39,999.85,0.000000,0.000000,0.00,0,3,0.0817,-0.0752,0.9995,5.9924,2.8168,4.9160,1.006
95.846,27.16,44.39,999.85,0.000000,0.000000,0.00,0,3,0.0517,-0.0747,0.9890,3.6565,2.1527,4.7328,0.993
95.852,27.16,44.39,999.85,0.000000,0.000000,0.00,0,3,0.0671,-0.0908,0.9812,1.5191,1.8626,4.8550,0.988
95.858,27.16,44.39,999.85,0.000000,0.000000,0.00,0,3,0.0564,-0.1091,0.9727,0.1298,1.2214,4.6260,0.980
96.006,27.14,44.43,999.80,0.000000,0.000000,0.00,0,3,0.0241,-0.0988,1.0247,-0.5420,-1.5420,8.7099,1.030
96.012,27.14,44.43,999.80,0.000000,0.000000,0.00,0,3,0.0127,-0.1060,1.0281,0.4580,-2.1221,8.1603,1.034
96.019,27.17,44.44,999.84,0.000000,0.000000,0.00,0,3,0.0253,-0.1030,1.0261,1.4809,-2.5115,7.4046,1.032
96.025,27.17,44.44,999.84,0.000000,0.000000,0.00,0,3,0.0207,-0.1133,1.0313,2.5344,-2.6489,7.1450,1.038
96.031,27.17,44.44,999.84,0.000000,0.000000,0.00,0,3,0.0275,-0.1106,1.0273,3.5191,-2.9542,6.7481,1.034
96.037,27.17,44.44,999.84,0.000000,0.000000,0.00,0,3,0.0261,-0.1116,1.0239,4.2443,-3.1679,6.3588,1.030
96.043,27.17,44.44,999.84,0.000000,0.000000,0.00,0,3,0.0278,-0.1086,1.0227,4.7252,-3.2748,6.2977,1.029
96.049,27.17,44.44,999.84,0.000000,0.000000,0.00,0,3,0.0339,-0.1152,1.0281,5.0000,-3.3053,6.0076,1.035
96.055,27.17,44.44,999.84,0.000000,0.000000,0.00,0,3,0.0310,-0.1196,1.0261,4.9084,-3.4885,5.7557,1.034
96.061,27.17,44.44,999.84,0.000000,0.000000,0.00,0,3,0.0451,-0.1177,1.0237,5.0000,-3.4962,5.6641,1.031
96.103,27.17,44.44,999.84,0.000000,0.000000,0.00,0,3,0.0766,-0.1396,1.0051,7.9618,-4.0992,7.0992,1.018
96.109,27.17,44.44,999.84,0.000000,0.000000,0.00,0,3,0.0832,-0.1479,1.0063,7.8626,-4.0305,7.1603,1.021
96.115,27.17,44.41,999.75,0.000000,0.000000,0.00,0,3,0.0944,-0.1394,1.0002,7.5115,-3.8397,7.7023,1.014
96.121,27.13,44.41,999.75,0.000000,0.000000,0.00,0,3,0.1060,-0.1350,0.9805,6.6336,-3.5954,8.3130,0.995
96.127,27.13,44.41,999.75,0.000000,0.000000,0.00,0,3,0.1067,-0.1614,0.9722,6.0000,-3.0840,8.0840,0.991
96.133,27.13,44.41,999.75,0.000000,0.000000,0.00,0,3,0.1011,-0.1240,0.9690,4.8092,-2.7786,8.4656,0.982
96.139,27.13,44.41,999.75,0.000000,0.000000,0.00,0,3,0.1057,-0.1318,0.9702,3.2443,-2.1298,8.5649,0.985
96.145,27.14,44.44,999.77,0.000000,0.000000,0.00,0,3,0.0466,-0.1743,0.9673,38.3664,6.9695,25.8550,0.984
96.288,27.14,44.44,999.77,0.000000,0.000000,0.00,0,3,0.0605,-0.1826,0.9714,35.6183,7.5038,26.1527,0.990
96.294,27.14,44.44,999.77,0.000000,0.000000,0.00,0,3,0.0493,-0.1653,0.9819,32.1679,8.7481,26.7176,0.997
96.457,27.17,44.43,999.86,0.000000,0.000000,0.00,0,3,-0.0141,-0.1592,1.0471,4.9237,-1.8626,3.7023,1.059
96.463,27.17,44.43,999.86,0.000000,0.000000,0.00,0,3,-0.0122,-0.1553,1.0525,4.5649,-2.4656,2.7176,1.064
96.469,27.17,44.43,999.86,0.000000,0.000000,0.00,0,3,-0.0178,-0.1646,1.0454,4.7939,-3.6183,2.1374,1.058
96.475,27.17,44.43,999.86,0.000000,0.000000,0.00,0,3,-0.0112,-0.1809,1.0374,5.9618,-4.7786,1.4733,1.053
96.481,27.17,44.43,999.86,0.000000,0.000000,0.00,0,3,-0.0212,-0.1733,1.0327,6.9771,-6.1679,0.9389,1.047
96.487,27.17,44.43,999.86,0.000000,0.000000,0.00,0,3,-0.0087,-0.1851,1.0298,9.0916,-7.3053,0.4733,1.046
96.493,27.17,44.43,999.86,0.000000,0.000000,0.00,0,3,-0.0061,-0.1794,1.0261,10.0687,-8.4198,0.4962,1.042
96.499,27.17,44.43,999.83,0.000000,0.000000,0.00,0,3,-0.0175,-0.1926,1.0640,-2.0840,-13.9084,5.0076,1.081
96.574,27.17,44.43,999.83,0.000000,0.000000,0.00,0,3,-0.0244,-0.1870,1.0430,-1.9771,-13.7481,5.5649,1.060
96.580,27.17,44.43,999.83,0.000000,0.000000,0.00,0,3,-0.0188,-0.1780,1.0352,-2.0458,-13.6260,6.1069,1.051
96.855,27.17,44.44,999.84,0.000000,0.000000,0.00,0,3,0.0278,-0.2273,1.0588,13.1145,2.3893,-3.4656,1.083
96.861,27.17,44.44,999.84,0.000000,0.000000,0.00,0,3,0.0527,-0.2229,1.0527,16.8244,2.5267,-3.3588,1.077
96.867,27.17,44.44,999.84,0.000000,0.000000,0.00,0,3,0.0324,-0.2253,1.0601,19.8473,2.4198,-3.6870,1.084
96.873,27.17,44.44,999.84,0.000000,0.000000,0.00,0,3,0.0378,-0.2241,1.0493,22.4886,2.5420,-3.6260,1.074
96.879,27.17,44.44,999.84,0.000000,0.000000,0.00,0,3,0.0346,-0.2197,1.0493,24.7710,2.5802,-4.0458,1.073
96.885,27.17,44.44,999.84,0.000000,0.000000,0.00,0,3,0.0456,-0.2124,1.0378,26.4122,2.4733,-4.5115,1.060
96.891,27.17,44.44,999.84,0.000000,0.000000,0.00,0,3,0.0532,-0.1987,1.0332,27.1679,2.6565,-5.0840,1.053
96.897,27.17,44.44,999.83,0.000000,0.000000,0.00,0,3,0.0559,-0.1909,1.0291,27.2214,2.6870,-5.3588,1.048
96.903,27.16,44.39,999.83,0.000000,0.000000,0.00,0,3,0.0637,-0.1794,1.0295,27.4733,2.7863,-6.1527,1.047
96.909,27.16,44.39,999.83,0.000000,0.000000,0.00,0,3,0.0617,-0.1770,1.0239,27.8321,2.9160,-6.7252,1.041
97.021,27.16,44.44,999.81,0.000000,0.000000,0.00,0,3,0.0422,-0.2036,0.9858,36.5725,-6.8092,-14.3359,1.008
97.027,27.16,44.44,999.81,0.000000,0.000000,0.00,0,3,0.0407,-0.2180,0.9941,35.8168,-7.6260,-13.8168,1.019
97.033,27.16,44.44,999.81,0.000000,0.000000,0.00,0,3,0.0466,-0.2288,0.9885,36.1450,-8.6260,-13.4122,1.016
97.039,27.16,44.44,999.81,0.000000,0.000000,0.00,0,3,0.0478,-0.2305,0.9946,36.4122,-10.0076,-12.8855,1.022
97.045,27.16,44.44,999.81,0.000000,0.000000,0.00,0,3,0.0546,-0.2339,0.9902,36.6412,-11.3053,-13.1832,1.019
97.051,27.16,44.44,999.81,0.000000,0.000000,0.00,0,3,0.0551,-0.2124,0.9907,37.0992,-12.8244,-12.9313,1.015
97.058,27.16,44.44,999.81,0.000000,0.000000,0.00,0,3,0.0664,-0.2090,0.9849,36.9313,-14.2595,-13.0534,1.009
97.064,27.16,44.44,999.81,0.000000,0.000000,0.00,0,3,0.0727,-0.1965,0.9863,35.8473,-15.4275,-13.1832,1.008
97.070,27.16,44.44,999.81,0.000000,0.000000,0.00,0,3,0.0869,-0.1929,0.9753,34.0000,-16.6412,-13.5191,0.998
97.076,27.16,44.44,999.81,0.000000,0.000000,0.00,0,3,0.0908,-0.1917,0.9802,31.1679,-17.5344,-13.3206,1.003
97.268,27.18,44.43,999.85,0.000000,0.000000,0.00,0,3,0.0466,-0.0861,0.9973,26.7099,19.4427,-32.7252,1.002
97.343,27.18,44.43,999.85,0.000000,0.000000,0.00,0,3,0.0429,-0.0832,1.0017,28.0000,18.9084,-32.0534,1.006
97.349,27.18,44.43,999.85,0.000000,0.000000,0.00,0,3,0.0322,-0.0747,1.0020,28.1985,18.4275,-30.7252,1.005
97.356,27.18,44.43,999.85,0.000000,0.000000,0.00,0,3,0.0390,-0.0698,0.9968,28.1527,17.4733,-29.8168,1.000
97.362,27.18,44.43,999.85,0.000000,0.000000,0.00,0,3,0.0354,-0.0598,0.9949,27.3664,16.7481,-28.4351,0.997
97.368,27.18,44.43,999.85,0.000000,0.000000,0.00,0,3,0.0271,-0.0666,1.0032,25.7863,15.7252,-27.0534,1.006
97.374,27.18,44.43,999.85,0.000000,0.000000,0.00,0,3,0.0234,-0.0620,0.9988,24.5420,14.4122,-25.5954,1.001
97.380,27.18,44.43,999.85,0.000000,0.000000,0.00,0,3,0.0275,-0.0683,1.0034,23.7405,12.6565,-24.2901,1.006
97.386,27.18,44.43,999.83,0.000000,0.000000,0.00,0,3,0.0422,-0.0607,1.0010,22.9160,10.3130,-22.6489,1.004
97.392,27.17,44.50,999.83,0.000000,0.000000,0.00,0,3,0.0603,-0.0537,1.0037,22.2901,7.8550,-21.1603,1.007
97.509,27.17,44.43,999.83,0.000000,0.000000,0.00,0,3,0.0996,0.0188,0.9844,-26.0992,-14.4962,7.0611,0.990
97.515,27.17,44.43,999.83,0.000000,0.000000,0.00,0,3,0.0891,0.0148,0.9790,-25.7023,-15.0153,7.5954,0.983
97.521,27.17,44.43,999.83,0.000000,0.000000,0.00,0,3,0.1033,0.0102,0.9810,-26.0153,-15.2595,7.7863,0.986
97.527,27.17,44.43,999.83,0.000000,0.000000,0.00,0,3,0.0964,0.0039,0.9683,-26.6031,-15.3435,8.0916,0.973
97.533,27.17,44.43,999.83,0.000000,0.000000,0.00,0,3,0.0974,0.0043,0.9724,-27.7481,-15.4427,8.1221,0.977
97.539,27.17,44.43,999.83,0.000000,0.000000,0.00,0,3,0.0830,0.0012,0.9712,-28.7557,-15.3588,8.1756,0.975
97.545,27.17,44.43,999.83,0.000000,0.000000,0.00,0,3,0.0964,0.0051,0.9753,-30.3282,-14.9847,7.9924,0.980
97.551,27.17,44.43,999.83,0.000000,0.000000,0.00,0,3,0.0900,-0.0063,0.9749,-31.6412,-14.6718,7.8702,0.979
97.557,27.17,44.43,999.83,0.000000,0.000000,0.00,0,3,0.0900,-0.0097,0.9751,-33.3588,-14.2977,7.4962,0.979
97.563,27.17,44.43,999.82,0.000000,0.000000,0.00,0,3,-0.1255,-0.1821,1.1335,-35.3053,-4.4580,-1.0000,1.155
97.784,27.18,44.42,999.84,0.000000,0.000000,0.00,0,3,0.1111,0.0544,1.0408,-9.3740,-0.1527,3.1145,1.048
97.859,27.18,44.42,999.84,0.000000,0.000000,0.00,0,3,0.1177,0.0585,1.0618,-11.6641,0.8244,3.5115,1.070
97.865,27.18,44.42,999.84,0.000000,0.000000,0.00,0,3,0.0910,0.0559,1.0596,-13.3435,1.4046,4.5344,1.065
97.871,27.18,44.42,999.84,0.000000,0.000000,0.00,0,3,0.0739,0.0275,1.0686,-14.2748,1.9771,5.1527,1.072
97.877,27.18,44.42,999.83,0.000000,0.000000,0.00,0,3,0.0595,0.0146,1.0823,-13.9008,2.3206,6.1756,1.084
97.883,27.18,44.42,999.83,0.000000,0.000000,0.00,0,3,0.0405,0.0017,1.0852,-13.2366,2.5115,7.0611,1.086
97.889,27.18,44.42,999.83,0.000000,0.000000,0.00,0,3,0.0263,-0.0217,1.0923,-12.0992,2.7939,7.9313,1.093
97.895,27.18,44.41,999.80,0.000000,0.000000,0.00,0,3,0.1936,0.0129,0.9771,-5.1985,-10.1374,3.6870,0.996
98.038,27.16,44.41,999.80,0.000000,0.000000,0.00,0,3,0.1924,0.0012,0.9880,-7.9771,-9.6641,4.6031,1.007
98.044,27.16,44.41,999.80,0.000000,0.000000,0.00,0,3,0.1790,0.0085,0.9939,-9.6794,-9.1756,5.3435,1.010
98.225,27.18,44.40,999.86,0.000000,0.000000,0.00,0,3,0.1328,-0.0822,0.9270,-10.8779,-8.8015,-9.0229,0.940
98.231,27.18,44.40,999.86,0.000000,0.000000,0.00,0,3,0.1672,-0.0429,0.9338,-14.5725,-8.1756,-8.3206,0.950
98.237,27.18,44.40,999.86,0.000000,0.000000,0.00,0,3,0.1475,-0.0622,0.9602,-17.5038,-7.5954,-9.7023,0.973
98.243,27.18,44.40,999.82,0.000000,0.000000,0.00,0,3,0.1228,-0.0722,1.0408,-9.3130,9.8473,-2.6183,1.050
98.318,27.18,44.40,999.82,0.000000,0.000000,0.00,0,3,0.1165,-0.0798,1.0432,-5.4427,10.8855,-2.3206,1.053
98.324,27.18,44.39,999.84,0.000000,0.000000,0.00,0,3,0.1626,-0.0664,0.9673,17.2977,19.0916,-3.1298,0.983
98.467,27.18,44.38,999.84,0.000000,0.000000,0.00,0,3,0.1235,-0.0664,0.9639,15.3817,18.0611,-3.6718,0.974
98.473,27.18,44.38,999.84,0.000000,0.000000,0.00,0,3,0.1428,-0.0805,0.9717,13.6336,17.1908,-3.9389,0.985
98.479,27.18,44.38,999.84,0.000000,0.000000,0.00,0,3,0.1360,-0.0744,0.9795,12.3282,16.2595,-3.9542,0.992
98.485,27.18,44.38,999.84,0.000000,0.000000,0.00,0,3,0.1421,-0.0786,0.9937,10.8015,15.1985,-4.0000,1.007
98.635,27.16,44.38,999.78,0.000000,0.000000,0.00,0,3,-0.0097,-0.0117,1.0632,-11.4122,6.4885,7.8397,1.063
98.641,27.16,44.38,999.78,0.000000,0.000000,0.00,0,3,-0.0002,-0.0380,1.0669,-10.6107,6.4122,7.8702,1.068
98.647,27.16,44.38,999.78,0.000000,0.000000,0.00,0,3,-0.0041,-0.0280,1.0767,-10.3664,6.7176,8.9160,1.077
98.654,27.16,44.38,999.78,0.000000,0.000000,0.00,0,3,-0.0139,-0.0341,1.0715,-10.6412,6.6031,9.2595,1.072
98.660,27.19,44.35,999.81,0.000000,0.000000,0.00,0,3,-0.0114,-0.0380,1.0750,-9.9847,6.8931,9.7557,1.076
98.666,27.19,44.35,999.81,0.000000,0.000000,0.00,0,3,-0.0141,-0.0554,1.0735,-9.1221,6.8855,10.4809,1.075
98.673,27.19,44.35,999.81,0.000000,0.000000,0.00,0,3,-0.0136,-0.0593,1.0735,-8.9618,6.8397,10.6031,1.075
98.679,27.19,44.35,999.81,0.000000,0.000000,0.00,0,3,-0.3535,-0.3130,1.0542,-2.6489,7.0382,10.5038,1.155
98.684,27.19,44.35,999.81,0.000000,0.000000,0.00,0,3,0.1091,-0.1289,0.9653,-7.6565,7.4733,11.5115,0.980
98.691,27.19,44.35,999.81,0.000000,0.000000,0.00,0,3,-0.0422,0.0200,1.1414,-4.6718,5.5802,9.3740,1.142
98.839,27.15,44.36,999.78,0.000000,0.000000,0.00,0,3,0.1880,-0.0185,1.0190,30.2901,-9.9695,11.1221,1.036
98.845,27.15,44.36,999.78,0.000000,0.000000,0.00,0,3,0.1868,-0.0332,1.0144,27.7405,-9.5420,11.7405,1.032
98.851,27.15,44.36,999.78,0.000000,0.000000,0.00,0,3,0.1841,-0.0368,1.0212,24.3053,-9.1069,12.3435,1.038
98.857,27.19,44.35,999.80,0.000000,0.000000,0.00,0,3,0.1733,-0.0463,1.0229,20.2672,-8.4046,12.9542,1.039
98.863,27.19,44.35,999.80,0.000000,0.000000,0.00,0,3,0.1680,-0.0656,1.0242,14.9771,-7.4504,13.6794,1.040
98.868,27.19,44.35,999.80,0.000000,0.000000,0.00,0,3,0.1555,-0.0725,1.0286,9.9313,-6.2824,14.2977,1.043
98.874,27.19,44.35,999.80,0.000000,0.000000,0.00,0,3,0.1284,-0.0952,1.0452,4.0687,-4.9389,15.4656,1.057
98.880,27.19,44.35,999.80,0.000000,0.000000,0.00,0,3,0.1294,-0.1135,1.0544,-0.7863,-3.7405,16.1756,1.068
98.887,27.19,44.35,999.80,0.000000,0.000000,0.00,0,3,0.1116,-0.1235,1.0579,-4.4809,-2.9924,17.1298,1.071
98.892,27.19,44.35,999.80,0.000000,0.000000,0.00,0,3,0.0922,-0.1206,1.0603,-6.9695,-2.3588,18.0763,1.071
99.045,27.16,44.36,999.75,0.000000,0.000000,0.00,0,3,0.0922,-0.1663,0.9836,2.1679,-5.5267,-10.8779,1.002
99.051,27.19,44.34,999.83,0.000000,0.000000,0.00,0,3,0.0935,-0.1582,0.9841,3.0382,-4.5725,-11.7023,1.001
99.057,27.19,44.34,999.83,0.000000,0.000000,0.00,0,3,0.0961,-0.1475,0.9751,3.5267,-3.4580,-12.1374,0.991
99.063,27.19,44.34,999.83,0.000000,0.000000,0.00,0,3,0.0971,-0.1399,0.9719,4.1298,-2.1679,-12.3435,0.987
99.069,27.19,44.34,999.83,0.000000,0.000000,0.00,0,3,0.0966,-0.1277,0.9741,5.4427,-1.1450,-12.5267,0.987
99.075,27.19,44.34,999.83,0.000000,0.000000,0.00,0,3,0.0969,-0.1289,0.9763,6.7023,-0.2748,-12.1145,0.990
99.081,27.19,44.34,999.83,0.000000,0.000000,0.00,0,3,0.1069,-0.1262,0.9800,7.9466,1.0382,-12.0000,0.994
99.087,27.19,44.34,999.83,0.000000,0.000000,0.00,0,3,0.1204,-0.1284,0.9827,9.6718,1.7405,-11.7710,0.998
99.093,27.19,44.34,999.83,0.000000,0.000000,0.00,0,3,0.1274,-0.1326,0.9885,11.6641,3.0153,-11.0076,1.005
99.099,27.19,44.34,999.83,0.000000,0.000000,0.00,0,3,0.2463,-0.2114,0.9966,11.9771,5.9695,-11.6489,1.048
99.329,27.19,44.33,999.78,0.000000,0.000000,0.00,0,3,0.0966,-0.0725,0.9946,2.1603,7.6183,-1.7405,1.002
99.335,27.19,44.33,999.78,0.000000,0.000000,0.00,0,3,0.0905,-0.0603,0.9832,0.1145,7.2366,-1.2290,0.989
99.340,27.19,44.33,999.85,0.000000,0.000000,0.00,0,3,0.0913,-0.0637,0.9890,-1.4962,6.6641,-0.8015,0.995
99.347,27.19,44.33,999.85,0.000000,0.000000,0.00,0,3,0.0698,-0.0634,0.9893,-2.6641,6.0153,-0.2595,0.994
99.352,27.19,44.33,999.85,0.000000,0.000000,0.00,0,3,0.0764,-0.0629,0.9873,-3.5878,5.3282,-0.1221,0.992
99.358,27.19,44.33,999.85,0.000000,0.000000,0.00,0,3,0.0739,-0.0615,0.9912,-3.7023,4.4198,0.2443,0.996
99.364,27.19,44.33,999.81,0.000000,0.000000,0.00,0,3,0.0993,-0.0529,1.0149,2.4809,2.9771,7.4656,1.021
99.508,27.17,44.35,999.81,0.000000,0.000000,0.00,0,3,0.0847,-0.0908,1.0305,3.3893,3.0000,7.5878,1.038
99.514,27.17,44.35,999.81,0.000000,0.000000,0.00,0,3,0.0935,-0.0869,1.0210,2.1298,3.5878,7.5344,1.029
99.520,27.17,44.35,999.81,0.000000,0.000000,0.00,0,3,0.0964,-0.0932,1.0254,1.9847,3.7863,7.3282,1.034
99.689,27.20,44.31,999.83,0.000000,0.000000,0.00,0,3,0.0744,-0.0676,1.0144,-1.2824,3.5649,-3.6565,1.019
99.695,27.20,44.31,999.83,0.000000,0.000000,0.00,0,3,0.0700,-0.0510,1.0244,-1.3359,3.4885,-3.2366,1.028
99.701,27.20,44.31,999.83,0.000000,0.000000,0.00,0,3,0.0605,-0.0647,1.0107,-0.9389,3.0916,-3.5038,1.015
99.707,27.20,44.31,999.83,0.000000,0.000000,0.00,0,3,0.0683,-0.0683,0.9924,-1.1908,2.7786,-3.5420,0.997
99.713,27.20,44.31,999.83,0.000000,0.000000,0.00,0,3,0.0647,-0.0603,1.0032,-1.5420,2.9008,-3.5115,1.007
99.719,27.20,44.31,999.83,0.000000,0.000000,0.00,0,3,0.0542,-0.0625,1.0015,-1.5191,2.6870,-3.7252,1.005
99.725,27.20,44.31,999.83,0.000000,0.000000,0.00,0,3,0.0693,-0.0495,1.0142,-2.4656,3.3588,-3.0687,1.018
99.731,27.20,44.31,999.83,0.000000,0.000000,0.00,0,3,0.0495,-0.0500,1.0010,-2.3817,2.8626,-2.7176,1.003
99.737,27.20,44.26,999.81,0.000000,0.000000,0.00,0,3,0.0415,-0.0607,0.9966,-2.2443,3.1298,-2.5038,0.999
99.743,27.20,44.26,999.81,0.000000,0.000000,0.00,0,3,0.0437,-0.0754,0.9980,-1.8092,3.0611,-2.1756,1.002
99.837,27.18,44.30,999.81,0.000000,0.000000,0.00,0,3,0.0219,-0.0466,1.0010,-1.8855,1.6107,-0.3893,1.002
99.843,27.18,44.30,999.81,0.000000,0.000000,0.00,0,3,0.0527,-0.0593,0.9976,-2.1450,1.9008,-0.8779,1.001
99.849,27.18,44.30,999.81,0.000000,0.000000,0.00,0,3,0.0505,-0.0476,1.0078,-1.4656,1.3588,0.0000,1.010
99.855,27.18,44.30,999.81,0.000000,0.000000,0.00,0,3,0.0429,-0.0507,1.0144,-1.5573,1.5420,-0.5267,1.017
99.861,27.18,44.30,999.81,0.000000,0.000000,0.00,0,3,0.0534,-0.0466,1.0164,-1.7176,1.6412,-0.0992,1.019
99.867,27.18,44.30,999.81,0.000000,0.000000,0.00,0,3,0.0502,-0.0459,1.0181,-1.8931,1.5115,0.0916,1.020
99.873,27.18,44.30,999.81,0.000000,0.000000,0.00,0,3,0.0681,-0.0388,1.0198,-2.0382,1.6489,-0.0076,1.023
99.879,27.18,44.30,999.81,0.000000,0.000000,0.00,0,3,0.0593,-0.0366,1.0193,-2.8397,1.8244,-0.0610,1.022
99.885,27.18,44.30,999.81,0.000000,0.000000,0.00,0,3,0.0715,-0.0373,1.0120,-3.2290,1.9924,0.0992,1.015
99.891,27.18,44.30,999.81,0.000000,0.000000,0.00,0,3,0.0690,-0.0307,1.0107,-2.8168,2.2595,0.1221,1.014
100.065,27.20,44.29,999.82,0.000000,0.000000,0.00,0,3,-0.0295,-0.1133,0.9954,6.8702,4.6718,2.6794,1.002
100.071,27.20,44.29,999.82,0.000000,0.000000,0.00,0,3,-0.0124,-0.1035,0.9734,6.0229,4.0229,2.0000,0.979
100.077,27.20,44.29,999.82,0.000000,0.000000,0.00,0,3,-0.0127,-0.1003,0.9685,4.7252,3.7328,0.8244,0.974
100.083,27.20,44.29,999.82,0.000000,0.000000,0.00,0,3,-0.0092,-0.0803,0.9705,3.8855,3.3893,-0.0458,0.974
100.089,27.20,44.29,999.82,0.000000,0.000000,0.00,0,3,-0.0117,-0.0759,0.9565,3.1985,2.3435,-1.5954,0.960
100.095,27.20,44.29,999.82,0.000000,0.000000,0.00,0,3,0.0146,-0.0576,0.9587,2.6336,1.7863,-2.7863,0.961
100.101,27.20,44.29,999.82,0.000000,0.000000,0.00,0,3,0.0222,-0.0407,0.9587,3.0763,1.3359,-3.6489,0.960
100.107,27.20,44.29,999.82,0.000000,0.000000,0.00,0,3,0.0439,-0.0385,0.9626,4.0611,0.4275,-4.7786,0.964
100.113,27.20,44.29,999.82,0.000000,0.000000,0.00,0,3,0.0554,-0.0327,0.9729,5.7252,0.0534,-5.3969,0.975
100.119,27.20,44.29,999.82,0.000000,0.000000,0.00,0,3,0.0742,-0.0344,0.9763,8.0229,-0.6031,-6.0229,0.980
100.255,27.20,44.28,999.83,0.000000,0.000000,0.00,0,3,0.0524,-0.1055,1.0391,1.3664,7.3130,11.4198,1.046
100.261,27.20,44.28,999.83,0.000000,0.000000,0.00,0,3,0.0344,-0.1108,1.0378,-1.3969,6.9695,11.0076,1.044
100.267,27.20,44.28,999.83,0.000000,0.000000,0.00,0,3,0.0332,-0.1174,1.0320,-4.9237,6.2672,10.6260,1.039
100.273,27.20,44.28,999.83,0.000000,0.000000,0.00,0,3,0.0183,-0.1147,1.0391,-8.0534,5.5878,10.2672,1.046
100.279,27.20,44.28,999.83,0.000000,0.000000,0.00,0,3,0.0095,-0.1208,1.0327,-11.0840,4.8321,9.2672,1.040
100.285,27.20,44.28,999.83,0.000000,0.000000,0.00,0,3,-0.0029,-0.1228,1.0322,-13.6489,3.6260,8.2214,1.040
100.291,27.20,44.28,999.83,0.000000,0.000000,0.00,0,3,-0.0153,-0.1187,1.0381,-15.4580,2.6412,7.4122,1.045
100.297,27.20,44.28,999.83,0.000000,0.000000,0.00,0,3,-0.0749,-0.5227,0.9446,-9.2137,2.4275,6.0916,1.082
100.303,27.20,44.28,999.83,0.000000,0.000000,0.00,0,3,0.0151,-0.1021,0.9807,-15.7786,0.7786,5.0840,0.986
100.309,27.20,44.28,999.83,0.000000,0.000000,0.00,0,3,-0.0297,-0.1035,1.0530,-14.2214,-1.3511,3.0992,1.058
100.465,27.21,44.27,999.83,0.000000,0.000000,0.00,0,3,0.1196,-0.0725,0.9614,4.0840,-6.9847,1.2901,0.972
100.471,27.21,44.27,999.83,0.000000,0.000000,0.00,0,3,0.1343,-0.0549,0.9590,4.3435,-7.5191,1.0229,0.970
100.477,27.21,44.27,999.83,0.000000,0.000000,0.00,0,3,0.1367,-0.0505,0.9548,4.7634,-7.9160,0.1756,0.966
100.483,27.21,44.27,999.83,0.000000,0.000000,0.00,0,3,0.1367,-0.0468,0.9587,4.4885,-8.3130,-0.3206,0.970
100.489,27.21,44.27,999.83,0.000000,0.000000,0.00,0,3,0.1311,-0.0515,0.9526,3.7176,-8.5725,-0.5878,0.963
100.495,27.21,44.27,999.83,0.000000,0.000000,0.00,0,3,0.1243,-0.0605,0.9561,2.9924,-8.5954,-1.2137,0.966
100.501,27.21,44.27,999.83,0.000000,0.000000,0.00,0,3,0.1179,-0.0659,0.9634,1.9847,-8.4885,-1.0229,0.973
100.507,27.21,44.27,999.83,0.000000,0.000000,0.00,0,3,0.1104,-0.0620,0.9907,0.0610,-8.2824,-1.1679,0.999
100.513,27.21,44.27,999.83,0.000000,0.000000,0.00,0,3,0.1155,-0.0690,1.0085,-2.1603,-7.7557,-0.5420,1.017
100.519,27.21,44.24,999.79,0.000000,0.000000,0.00,0,3,0.1099,-0.0690,1.0139,-3.9847,-6.8931,-0.1450,1.022
100.696,27.21,44.27,999.83,0.000000,0.000000,0.00,0,3,0.0581,-0.1289,1.0063,-6.7634,-9.8702,7.1908,1.016
100.702,27.21,44.27,999.83,0.000000,0.000000,0.00,0,3,0.0625,-0.1255,1.0046,-5.5420,-10.3282,5.9084,1.014
100.708,27.21,44.27,999.83,0.000000,0.000000,0.00,0,3,0.0766,-0.1191,1.0063,-4.1985,-10.2366,4.9008,1.016
100.714,27.21,44.27,999.83,0.000000,0.000000,0.00,0,3,0.0698,-0.1155,0.9976,-2.9847,-10.1832,3.7710,1.007
100.721,27.21,44.27,999.83,0.000000,0.000000,0.00,0,3,0.0915,-0.1174,0.9978,-1.2137,-9.8702,2.6718,1.009
100.726,27.21,44.27,999.83,0.000000,0.000000,0.00,0,3,0.0920,-0.1042,1.0034,0.7252,-9.7557,1.9924,1.013
100.732,27.21,44.27,999.83,0.000000,0.000000,0.00,0,3,0.1130,-0.1040,0.9971,2.9542,-9.2595,1.0611,1.009
100.738,27.21,44.27,999.83,0.000000,0.000000,0.00,0,3,0.1182,-0.0998,0.9880,5.0229,-8.7557,0.5496,1.000
100.744,27.21,44.27,999.83,0.000000,0.000000,0.00,0,3,0.1167,-0.1069,0.9929,6.9771,-8.3817,0.2595,1.005
100.750,27.21,44.27,999.83,0.000000,0.000000,0.00,0,3,0.1221,-0.1147,0.9958,8.7023,-7.6183,-0.2366,1.010
100.792,27.21,44.27,999.83,0.000000,0.000000,0.00,0,3,0.1309,-0.1353,1.0164,10.8015,-1.0229,-0.6107,1.034
100.798,27.21,44.27,999.83,0.000000,0.000000,0.00,0,3,0.1204,-0.1411,1.0237,9.6870,0.5725,-0.6794,1.040
100.804,27.21,44.27,999.83,0.000000,0.000000,0.00,0,3,0.1230,-0.1345,1.0300,9.1756,1.9924,-0.2519,1.046
100.810,27.18,44.21,999.80,0.000000,0.000000,0.00,0,3,0.1187,-0.1213,1.0293,8.8550,3.2214,-0.0152,1.043
100.816,27.18,44.21,999.80,0.000000,0.000000,0.00,0,3,0.1172,-0.1243,1.0159,10.0000,3.9008,0.0000,1.030
100.822,27.18,44.21,999.80,0.000000,0.000000,0.00,0,3,0.1206,-0.1299,1.0076,11.1450,4.2519,-0.1450,1.023
100.828,27.18,44.21,999.80,0.000000,0.000000,0.00,0,3,0.1174,-0.0986,0.9993,12.2061,4.8855,-0.0152,1.011
100.834,27.18,44.21,999.80,0.000000,0.000000,0.00,0,3,0.1018,-0.1746,1.0183,16.7710,3.1221,1.4962,1.038
100.909,27.19,44.24,999.78,0.000000,0.000000,0.00,0,3,0.1106,-0.1641,1.0164,16.2595,2.8855,1.6641,1.035
100.915,27.19,44.24,999.78,0.000000,0.000000,0.00,0,3,0.1138,-0.1560,1.0127,14.7252,2.4198,1.1756,1.031
101.079,27.20,44.25,999.82,0.000000,0.000000,0.00,0,3,0.0927,-0.1123,1.0000,4.0763,4.9084,5.3206,1.011
101.085,27.20,44.25,999.82,0.000000,0.000000,0.00,0,3,0.0944,-0.1108,0.9907,4.4885,4.6489,5.1985,1.001
101.091,27.20,44.25,999.82,0.000000,0.000000,0.00,0,3,0.1011,-0.1118,0.9919,5.3511,4.5802,4.9924,1.003
101.097,27.20,44.25,999.82,0.000000,0.000000,0.00,0,3,0.0947,-0.1108,0.9885,6.2824,4.1603,4.6870,0.999
101.103,27.21,44.27,999.84,0.000000,0.000000,0.00,0,3,0.0961,-0.1238,0.9800,7.4885,3.8092,4.1298,0.992
101.109,27.21,44.27,999.84,0.000000,0.000000,0.00,0,3,0.0979,-0.1213,0.9807,8.2595,2.9008,3.4351,0.993
101.115,27.21,44.27,999.84,0.000000,0.000000,0.00,0,3,0.1648,-0.0947,0.9917,-1.0763,-0.1450,-5.0840,1.010
101.190,27.21,44.27,999.84,0.000000,0.000000,0.00,0,3,0.1575,-0.1033,0.9998,-1.2443,0.3817,-5.4656,1.017
101.196,27.21,44.27,999.84,0.000000,0.000000,0.00,0,3,0.1753,-0.1084,0.9966,-1.2366,0.7557,-5.1679,1.018
101.202,27.20,44.24,999.81,0.000000,0.000000,0.00,0,3,0.1743,-0.1196,0.9973,-0.8015,1.4122,-4.8473,1.019
101.356,27.21,44.24,999.80,0.000000,0.000000,0.00,0,3,-0.0898,-0.0271,1.0317,7.0840,5.7634,-1.6183,1.036
101.362,27.21,44.24,999.80,0.000000,0.000000,0.00,0,3,0.1030,-0.1631,1.0200,8.0382,6.2519,1.0611,1.038
101.368,27.21,44.24,999.80,0.000000,0.000000,0.00,0,3,0.0476,-0.1628,1.0232,9.1985,5.1069,1.7176,1.037
101.374,27.21,44.24,999.80,0.000000,0.000000,0.00,0,3,0.0058,-0.1589,1.0359,9.2901,5.2290,2.2977,1.048
101.380,27.21,44.24,999.80,0.000000,0.000000,0.00,0,3,0.0388,-0.1384,1.0388,9.9237,4.5115,3.6870,1.049
101.386,27.21,44.24,999.80,0.000000,0.000000,0.00,0,3,0.0358,-0.1360,1.0305,10.7634,3.9389,4.2595,1.040
101.391,27.21,44.24,999.80,0.000000,0.000000,0.00,0,3,0.0473,-0.1331,1.0415,10.6565,3.9847,5.0916,1.051
101.398,27.21,44.23,999.83,0.000000,0.000000,0.00,0,3,0.0476,-0.1218,1.0242,11.2824,3.1145,5.7405,1.032
101.404,27.21,44.23,999.83,0.000000,0.000000,0.00,0,3,0.0502,-0.1292,1.0229,11.4580,2.3130,5.8779,1.032
101.410,27.21,44.23,999.83,0.000000,0.000000,0.00,0,3,0.0419,-0.0905,1.0137,11.7863,1.6336,6.0382,1.019
101.451,27.21,44.23,999.83,0.000000,0.000000,0.00,0,3,0.0835,-0.1108,1.0066,8.0382,-2.4046,7.6336,1.016
101.457,27.21,44.23,999.83,0.000000,0.000000,0.00,0,3,0.0813,-0.1140,1.0247,7.1832,-2.6183,8.1374,1.034
101.463,27.21,44.23,999.83,0.000000,0.000000,0.00,0,3,0.1018,-0.1287,1.0154,5.7557,-2.8397,8.2519,1.029
101.469,27.21,44.23,999.83,0.000000,0.000000,0.00,0,3,0.0918,-0.1250,1.0085,4.6489,-2.5649,8.9618,1.020
101.475,27.21,44.23,999.83,0.000000,0.000000,0.00,0,3,0.1067,-0.1038,1.0144,3.7405,-2.7786,9.2443,1.025
101.481,27.21,44.23,999.83,0.000000,0.000000,0.00,0,3,0.0935,-0.0900,1.0178,3.0534,-2.5038,9.4046,1.026
101.487,27.21,44.23,999.83,0.000000,0.000000,0.00,0,3,0.1040,-0.1062,1.0078,2.8855,-2.8779,9.7176,1.019
101.493,27.21,44.22,999.79,0.000000,0.000000,0.00,0,3,0.0986,-0.0922,1.0005,2.4046,-2.8550,9.7634,1.010
101.499,27.20,44.22,999.79,0.000000,0.000000,0.00,0,3,0.0991,-0.1082,0.9968,2.6641,-3.3130,9.7557,1.008
101.505,27.20,44.22,999.79,0.000000,0.000000,0.00,0,3,0.1169,-0.0976,1.0012,2.6794,-3.7023,9.6947,1.013
101.655,27.20,44.23,999.77,0.000000,0.000000,0.00,0,3,0.1274,-0.2029,1.0205,19.0687,8.4580,-6.7481,1.048
101.661,27.20,44.23,999.77,0.000000,0.000000,0.00,0,3,0.1296,-0.1960,1.0242,19.5420,8.7252,-7.9618,1.051
101.668,27.20,44.23,999.77,0.000000,0.000000,0.00,0,3,0.1294,-0.2087,1.0239,19.4122,8.5649,-9.2824,1.053
101.674,27.20,44.23,999.77,0.000000,0.000000,0.00,0,3,0.1265,-0.1990,0.9956,17.9237,9.4275,-10.3893,1.023
101.680,27.20,44.23,999.77,0.000000,0.000000,0.00,0,3,0.1328,-0.1506,1.0242,14.8321,10.1221,-10.7939,1.044
101.686,27.20,44.23,999.79,0.000000,0.000000,0.00,0,3,0.1052,-0.1799,1.0073,13.1832,10.4351,-12.8550,1.029
101.692,27.22,44.25,999.81,0.000000,0.000000,0.00,0,3,0.0644,-0.0839,1.0205,9.1908,6.3588,-9.7863,1.026
101.768,27.22,44.25,999.81,0.000000,0.000000,0.00,0,3,0.0603,-0.0881,1.0134,9.6489,5.7099,-9.0687,1.019
101.773,27.22,44.25,999.81,0.000000,0.000000,0.00,0,3,0.0710,-0.0771,1.0181,9.2824,5.2366,-7.1679,1.023
101.779,27.22,44.25,999.81,0.000000,0.000000,0.00,0,3,0.0793,-0.0778,1.0186,8.8702,4.6641,-5.7863,1.025
101.912,27.22,44.22,999.81,0.000000,0.000000,0.00,0,3,0.0759,-0.2021,0.9995,-6.5649,-6.2366,5.3435,1.023
101.918,27.22,44.22,999.81,0.000000,0.000000,0.00,0,3,0.0268,-0.1685,1.0066,-4.8626,-5.7634,5.3817,1.021
101.924,27.22,44.22,999.81,0.000000,0.000000,0.00,0,3,0.0451,-0.1895,1.0154,-2.8702,-6.8092,4.3511,1.034
101.930,27.22,44.22,999.81,0.000000,0.000000,0.00,0,3,0.0844,-0.1531,0.9812,-2.7328,-7.7710,2.9160,0.997
101.936,27.22,44.22,999.81,0.000000,0.000000,0.00,0,3,0.0727,-0.1292,1.0015,-1.6260,-8.3053,2.3969,1.012
101.942,27.22,44.22,999.81,0.000000,0.000000,0.00,0,3,0.1074,-0.1499,1.0112,-0.3053,-9.1298,1.0687,1.028
101.948,27.22,44.22,999.81,0.000000,0.000000,0.00,0,3,0.0852,-0.1328,0.9917,0.4275,-9.6794,0.4198,1.004
101.954,27.22,44.22,999.81,0.000000,0.000000,0.00,0,3,0.1008,-0.1494,1.0005,1.0840,-10.1985,-0.4580,1.017
101.960,27.22,44.22,999.82,0.000000,0.000000,0.00,0,3,0.1509,-0.0971,1.0222,-6.4427,0.0458,6.7634,1.038
102.035,27.22,44.24,999.81,0.000000,0.000000,0.00,0,3,0.1667,-0.0869,1.0273,-9.1298,1.5802,6.6718,1.044
102.229,27.23,44.20,999.86,0.000000,0.000000,0.00,0,3,0.0656,-0.1301,0.9963,8.3511,1.2595,-6.3359,1.007
102.235,27.23,44.20,999.86,0.000000,0.000000,0.00,0,3,0.0891,-0.1272,0.9954,9.3588,0.8550,-7.1450,1.007
102.241,27.23,44.20,999.86,0.000000,0.000000,0.00,0,3,0.0966,-0.1206,0.9819,10.3588,0.3435,-7.5420,0.994
102.247,27.23,44.20,999.86,0.000000,0.000000,0.00,0,3,0.1106,-0.1174,0.9783,10.9237,0.0152,-7.9313,0.991
102.253,27.23,44.20,999.86,0.000000,0.000000,0.00,0,3,0.1221,-0.1179,0.9810,10.7176,-0.2595,-8.6260,0.996
102.259,27.23,44.20,999.86,0.000000,0.000000,0.00,0,3,0.1394,-0.1030,0.9741,10.1603,-0.4122,-8.9695,0.989
102.265,27.23,44.20,999.86,0.000000,0.000000,0.00,0,3,0.1404,-0.0937,0.9717,9.3435,-0.1756,-8.8626,0.986
102.271,27.23,44.20,999.86,0.000000,0.000000,0.00,0,3,0.1462,-0.0871,0.9717,7.7786,0.0305,-9.4809,0.986
102.277,27.22,44.19,999.85,0.000000,0.000000,0.00,0,3,0.1592,-0.0839,0.9688,5.5267,0.5420,-9.3817,0.985
102.283,27.22,44.19,999.85,0.000000,0.000000,0.00,0,3,0.1553,-0.0773,0.9709,3.5420,1.0611,-9.3053,0.986
102.435,27.21,44.20,999.84,0.000000,0.000000,0.00,0,3,0.0800,-0.0905,1.0227,7.9008,7.5649,6.0916,1.030
102.441,27.21,44.20,999.84,0.000000,0.000000,0.00,0,3,0.0759,-0.0881,1.0288,8.6336,7.0840,6.2443,1.035
102.447,27.21,44.20,999.84,0.000000,0.000000,0.00,0,3,0.0690,-0.1025,1.0225,9.3893,6.5344,6.1069,1.030
102.453,27.21,44.20,999.84,0.000000,0.000000,0.00,0,3,0.0759,-0.1025,1.0298,10.5267,5.8321,6.3664,1.038
102.459,27.21,44.20,999.84,0.000000,0.000000,0.00,0,3,0.0764,-0.1106,1.0261,11.1679,5.1985,6.1603,1.035
102.465,27.21,44.20,999.84,0.000000,0.000000,0.00,0,3,0.0847,-0.1096,1.0244,11.6718,4.7634,6.3206,1.034
102.471,27.22,44.21,999.83,0.000000,0.000000,0.00,0,3,0.0810,-0.1096,1.0251,11.4427,4.1069,5.8779,1.034
102.477,27.22,44.21,999.83,0.000000,0.000000,0.00,0,3,0.0527,-0.1426,0.9954,10.0458,3.1145,3.3817,1.007
102.483,27.22,44.21,999.83,0.000000,0.000000,0.00,0,3,0.0051,-0.0246,1.0605,10.8244,4.6870,6.4580,1.061
102.489,27.22,44.21,999.83,0.000000,0.000000,0.00,0,3,0.0883,-0.1052,1.0085,9.9313,2.9466,5.3130,1.018
102.679,27.23,44.18,999.85,0.000000,0.000000,0.00,0,3,0.0859,-0.1685,1.0132,16.2137,3.3435,-2.7634,1.031
102.685,27.23,44.18,999.85,0.000000,0.000000,0.00,0,3,0.0944,-0.1641,1.0098,15.0076,3.3282,-2.8092,1.027
102.691,27.23,44.18,999.85,0.000000,0.000000,0.00,0,3,0.1125,-0.1626,1.0117,14.1832,3.1756,-2.9618,1.031
102.697,27.23,44.18,999.85,0.000000,0.000000,0.00,0,3,0.0874,-0.2061,1.0142,13.9695,3.0687,-2.7328,1.039
102.703,27.23,44.18,999.85,0.000000,0.000000,0.00,0,3,0.1238,-0.1602,1.0059,11.6870,2.8321,-2.5573,1.026
102.709,27.23,44.18,999.85,0.000000,0.000000,0.00,0,3,0.1111,-0.1970,0.9958,11.0382,2.5954,-2.2748,1.021
102.715,27.23,44.18,999.85,0.000000,0.000000,0.00,0,3,0.1523,-0.1665,0.9988,9.7252,2.2519,-1.6718,1.024
102.721,27.23,44.18,999.85,0.000000,0.000000,0.00,0,3,0.1221,-0.1453,1.0149,9.1374,2.1527,-1.2443,1.032
102.727,27.23,44.18,999.85,0.000000,0.000000,0.00,0,3,0.1191,-0.1553,1.0205,8.2214,2.1450,-0.7939,1.039
102.733,27.23,44.18,999.85,0.000000,0.000000,0.00,0,3,0.0898,-0.1406,1.0076,-5.0382,1.2519,2.8015,1.021
102.999,27.23,44.17,999.83,0.000000,0.000000,0.00,0,3,0.0993,-0.1365,1.0010,4.7099,3.4504,-0.5267,1.015
103.005,27.23,44.17,999.83,0.000000,0.000000,0.00,0,3,0.0864,-0.1406,1.0059,3.9542,3.7634,-0.5115,1.019
103.011,27.23,44.17,999.83,0.000000,0.000000,0.00,0,3,0.0964,-0.1309,1.0083,3.1985,4.0534,-0.4504,1.021
103.017,27.23,44.17,999.83,0.000000,0.000000,0.00,0,3,0.0966,-0.1377,0.9993,2.7939,4.2595,-0.3130,1.013
103.023,27.23,44.17,999.83,0.000000,0.000000,0.00,0,3,0.1025,-0.1255,1.0100,1.7939,4.4351,-0.3664,1.023
103.029,27.23,44.17,999.83,0.000000,0.000000,0.00,0,3,0.0961,-0.1292,1.0071,1.0458,4.7786,-0.5573,1.020
103.035,27.23,44.17,999.85,0.000000,0.000000,0.00,0,3,0.0900,-0.1279,1.0205,-1.1679,6.4351,0.5267,1.032
103.110,27.23,44.17,999.85,0.000000,0.000000,0.00,0,3,0.0930,-0.1318,1.0154,-2.2595,6.6336,0.5267,1.028
103.116,27.23,44.17,999.85,0.000000,0.000000,0.00,0,3,0.0817,-0.1289,1.0100,-3.5267,6.6794,0.2748,1.021
103.122,27.23,44.17,999.85,0.000000,0.000000,0.00,0,3,0.0688,-0.1331,1.0083,-4.4809,6.7863,-0.0076,1.019
103.300,27.23,44.16,999.81,0.000000,0.000000,0.00,0,3,0.0639,-0.1128,1.0093,-0.5496,1.9847,-0.5802,1.018
103.306,27.23,44.16,999.81,0.000000,0.000000,0.00,0,3,0.0659,-0.1150,1.0085,-0.7557,1.9237,-0.6565,1.017
103.312,27.23,44.16,999.80,0.000000,0.000000,0.00,0,3,0.0529,-0.1394,0.9985,-1.3053,0.3817,1.2519,1.010
103.386,27.23,44.16,999.80,0.000000,0.000000,0.00,0,3,0.0683,-0.1177,1.0012,-1.8626,0.7786,1.5878,1.010
103.392,27.23,44.16,999.80,0.000000,0.000000,0.00,0,3,0.0234,-0.0903,1.0088,-1.6336,0.5802,1.6870,1.013
103.398,27.23,44.16,999.80,0.000000,0.000000,0.00,0,3,0.0561,-0.1331,0.9910,-1.5420,0.8779,2.2214,1.001
103.404,27.23,44.16,999.80,0.000000,0.000000,0.00,0,3,0.0388,-0.1338,0.9868,-1.7328,0.7863,2.1298,0.997
103.410,27.23,44.16,999.80,0.000000,0.000000,0.00,0,3,0.0546,-0.1321,0.9968,-1.3588,0.5420,2.2977,1.007
103.416,27.23,44.15,999.81,0.000000,0.000000,0.00,0,3,0.0649,-0.1289,1.0081,-0.3664,-0.3893,2.4046,1.018
103.491,27.23,44.15,999.81,0.000000,0.000000,0.00,0,3,0.0659,-0.1316,1.0090,-0.4351,-0.5954,1.8779,1.020
103.533,27.23,44.16,999.81,0.000000,0.000000,0.00,0,3,0.0651,-0.1345,1.0144,-1.5649,0.4351,1.9466,1.025
103.607,27.23,44.16,999.81,0.000000,0.000000,0.00,0,3,0.0676,-0.1313,1.0125,-1.4656,0.2137,1.6794,1.023
103.613,27.23,44.16,999.81,0.000000,0.000000,0.00,0,3,0.0683,-0.1384,1.0142,-1.3359,-0.2519,1.5115,1.026
103.619,27.23,44.16,999.81,0.000000,0.000000,0.00,0,3,0.0683,-0.1384,1.0076,-1.1374,-0.1450,1.0305,1.019
103.625,27.23,44.16,999.81,0.000000,0.000000,0.00,0,3,0.0688,-0.1377,1.0010,-1.4275,-0.2519,0.9084,1.013
103.631,27.23,44.16,999.81,0.000000,0.000000,0.00,0,3,0.0607,-0.1345,1.0093,-1.4809,-0.2748,0.6641,1.020
103.637,27.23,44.16,999.81,0.000000,0.000000,0.00,0,3,0.0564,-0.1448,1.0029,-1.3740,-0.6565,0.8550,1.015
103.643,27.23,44.17,999.85,0.000000,0.000000,0.00,0,3,0.0590,-0.1396,1.0159,-1.0992,-0.8015,0.4504,1.027
103.649,27.24,44.17,999.85,0.000000,0.000000,0.00,0,3,0.0666,-0.1482,1.0095,-0.9160,-0.9847,0.3053,1.023
103.655,27.24,44.17,999.85,0.000000,0.000000,0.00,0,3,0.0578,-0.1465,1.0083,-0.5649,-1.2443,0.2672,1.021
103.836,27.22,44.14,999.82,0.000000,0.000000,0.00,0,3,0.1279,-0.0908,1.0286,-5.1069,-1.5191,-3.1298,1.040
103.842,27.24,44.13,999.80,0.000000,0.000000,0.00,0,3,0.1230,-0.0896,1.0310,-4.4427,-1.1527,-3.5115,1.042
103.848,27.24,44.13,999.80,0.000000,0.000000,0.00,0,3,0.1169,-0.0922,1.0286,-3.8397,-0.5191,-3.7634,1.039
103.854,27.24,44.13,999.80,0.000000,0.000000,0.00,0,3,0.1189,-0.0964,1.0283,-3.3053,0.0687,-4.2977,1.040
103.860,27.24,44.13,999.80,0.000000,0.000000,0.00,0,3,0.1064,-0.0983,1.0242,-2.5725,0.5267,-4.5115,1.034
103.866,27.24,44.13,999.80,0.000000,0.000000,0.00,0,3,0.1104,-0.1023,1.0286,-1.9008,0.9695,-5.0916,1.040
103.872,27.24,44.13,999.80,0.000000,0.000000,0.00,0,3,0.1030,-0.0771,1.0359,-1.1603,1.8702,-5.6794,1.044
103.878,27.21,44.14,999.80,0.000000,0.000000,0.00,0,3,0.0896,-0.1096,1.0115,10.0305,2.9542,-10.5038,1.021
103.953,27.21,44.14,999.80,0.000000,0.000000,0.00,0,3,0.0820,-0.0996,1.0181,10.1908,2.5420,-10.4351,1.026
103.959,27.21,44.14,999.80,0.000000,0.000000,0.00,0,3,0.0798,-0.0991,1.0178,10.1450,2.3664,-10.1832,1.026
104.179,27.24,44.13,999.84,0.000000,0.000000,0.00,0,3,0.1189,-0.0930,0.9878,16.6641,-4.8244,0.5038,0.999
104.185,27.24,44.13,999.84,0.000000,0.000000,0.00,0,3,0.1279,-0.0927,0.9861,15.4351,-4.5954,0.4809,0.999
104.191,27.24,44.13,999.84,0.000000,0.000000,0.00,0,3,0.1206,-0.0864,0.9829,14.2977,-4.3664,0.6718,0.994
104.197,27.24,44.13,999.84,0.000000,0.000000,0.00,0,3,0.1211,-0.0932,0.9807,13.4351,-4.1756,0.4427,0.993
104.203,27.24,44.13,999.84,0.000000,0.000000,0.00,0,3,0.1099,-0.0896,0.9841,12.1908,-4.0229,0.7099,0.994
104.209,27.24,44.13,999.84,0.000000,0.000000,0.00,0,3,0.0903,-0.1228,0.9924,12.0229,-3.7481,0.4427,1.004
104.215,27.24,44.13,999.84,0.000000,0.000000,0.00,0,3,0.1096,-0.1125,0.9846,11.3740,-3.6870,0.6870,0.997
104.221,27.24,44.13,999.84,0.000000,0.000000,0.00,0,3,0.1038,-0.1042,0.9868,10.7863,-3.7863,0.2977,0.998
104.227,27.24,44.13,999.84,0.000000,0.000000,0.00,0,3,0.0876,-0.1108,0.9968,11.6794,-3.9466,0.2748,1.007
104.233,27.24,44.09,999.80,0.000000,0.000000,0.00,0,3,0.0939,-0.1272,0.9868,12.8473,-4.2824,-0.0305,0.999
104.395,27.24,44.12,999.79,0.000000,0.000000,0.00,0,3,0.1013,-0.1025,1.0090,15.4351,2.0305,-5.9237,1.019
104.401,27.24,44.12,999.79,0.000000,0.000000,0.00,0,3,0.1016,-0.1057,1.0100,15.5954,1.7634,-6.2443,1.021
104.407,27.24,44.12,999.79,0.000000,0.000000,0.00,0,3,0.0961,-0.1003,1.0112,15.4504,1.6107,-6.4580,1.021
104.413,27.24,44.12,999.79,0.000000,0.000000,0.00,0,3,0.0954,-0.1006,1.0107,15.1069,1.4198,-6.4198,1.020
104.419,27.24,44.12,999.79,0.000000,0.000000,0.00,0,3,0.0971,-0.0954,1.0144,14.7023,1.1908,-6.7710,1.024
104.425,27.24,44.08,999.82,0.000000,0.000000,0.00,0,3,0.1040,-0.0959,1.0129,14.3969,1.1679,-6.5038,1.023
104.431,27.24,44.08,999.82,0.000000,0.000000,0.00,0,3,0.1084,-0.0998,1.0137,13.8626,1.0153,-6.4275,1.024
104.437,27.24,44.08,999.82,0.000000,0.000000,0.00,0,3,0.1038,-0.0896,1.0193,13.6107,0.5038,-6.0840,1.028
104.443,27.24,44.08,999.82,0.000000,0.000000,0.00,0,3,0.1094,-0.0871,1.0164,12.9847,0.7099,-6.0382,1.026
104.449,27.24,44.08,999.82,0.000000,0.000000,0.00,0,3,0.1123,-0.0822,1.0146,12.4733,0.5038,-5.2824,1.024
104.492,27.24,44.08,999.82,0.000000,0.000000,0.00,0,3,0.1272,-0.0590,1.0081,8.8168,0.4427,-0.8321,1.018
104.498,27.24,44.08,999.82,0.000000,0.000000,0.00,0,3,0.1187,-0.0627,1.0159,8.4198,0.6260,0.0000,1.025
104.504,27.24,44.08,999.82,0.000000,0.000000,0.00,0,3,0.1245,-0.0556,1.0122,8.3206,0.3740,0.4580,1.021
104.510,27.24,44.08,999.82,0.000000,0.000000,0.00,0,3,0.1196,-0.0529,1.0117,7.9313,0.3740,0.9389,1.020
104.516,27.24,44.08,999.82,0.000000,0.000000,0.00,0,3,0.1204,-0.0573,1.0085,7.7863,0.0916,1.7557,1.017
104.522,27.24,44.08,999.78,0.000000,0.000000,0.00,0,3,0.1174,-0.0585,1.0049,7.9008,-0.1069,1.7328,1.013
104.528,27.22,44.06,999.78,0.000000,0.000000,0.00,0,3,0.1184,-0.0568,1.0134,7.6412,-0.0992,2.4809,1.022
104.534,27.22,44.06,999.78,0.000000,0.000000,0.00,0,3,0.1169,-0.0620,1.0142,7.4809,-0.4809,2.9160,1.023
104.540,27.22,44.06,999.78,0.000000,0.000000,0.00,0,3,0.1162,-0.0600,1.0090,7.7939,-0.6794,3.0534,1.017
104.546,27.22,44.06,999.78,0.000000,0.000000,0.00,0,3,0.1191,-0.0593,1.0139,7.5573,-1.1527,3.3130,1.023
104.726,27.25,44.10,999.80,0.000000,0.000000,0.00,0,3,0.0952,-0.0913,1.0134,9.7405,1.4656,-0.4351,1.022
104.732,27.25,44.10,999.80,0.000000,0.000000,0.00,0,3,0.0932,-0.0886,1.0129,10.0534,1.6412,-0.4809,1.021
104.738,27.25,44.10,999.80,0.000000,0.000000,0.00,0,3,0.0932,-0.0852,1.0127,10.3817,1.9313,-0.5802,1.021
104.744,27.25,44.10,999.80,0.000000,0.000000,0.00,0,3,0.0871,-0.0795,1.0044,10.6412,1.9847,-0.7328,1.011
104.751,27.25,44.10,999.80,0.000000,0.000000,0.00,0,3,0.0869,-0.0803,1.0022,11.1985,1.9313,-0.8168,1.009
104.757,27.25,44.10,999.80,0.000000,0.000000,0.00,0,3,0.0849,-0.0822,1.0049,12.0229,1.6794,-0.8550,1.012
104.763,27.22,44.11,999.77,0.000000,0.000000,0.00,0,3,0.0791,-0.0922,1.0195,12.3359,1.9847,2.9771,1.027
104.838,27.22,44.11,999.77,0.000000,0.000000,0.00,0,3,0.0947,-0.0979,1.0208,11.9924,1.9618,3.5802,1.030
104.844,27.22,44.11,999.77,0.000000,0.000000,0.00,0,3,0.0878,-0.1079,1.0254,11.8168,1.7634,3.6794,1.035
104.850,27.22,44.11,999.77,0.000000,0.000000,0.00,0,3,0.0898,-0.1040,1.0273,11.9008,1.4504,3.7252,1.036
104.928,27.23,44.09,999.78,0.000000,0.000000,0.00,0,3,0.1008,-0.0952,1.0383,9.0305,-1.2519,-2.5878,1.048
104.934,27.23,44.09,999.78,0.000000,0.000000,0.00,0,3,0.1016,-0.0954,1.0361,9.9542,-1.3969,-2.9313,1.045
104.940,27.23,44.09,999.78,0.000000,0.000000,0.00,0,3,0.1067,-0.0896,1.0347,10.3664,-1.3206,-2.5267,1.044
104.946,27.23,44.09,999.78,0.000000,0.000000,0.00,0,3,0.1055,-0.0900,1.0308,11.2214,-1.3282,-2.4427,1.040
104.952,27.23,44.09,999.78,0.000000,0.000000,0.00,0,3,0.1111,-0.0944,1.0259,11.8397,-1.0763,-2.5496,1.036
104.958,27.23,44.09,999.78,0.000000,0.000000,0.00,0,3,0.1230,-0.0898,1.0283,12.2214,-1.2137,-2.7023,1.040
104.964,27.23,44.09,999.78,0.000000,0.000000,0.00,0,3,0.1108,-0.0927,1.0247,12.0305,-1.0229,-2.4733,1.035
104.970,27.23,44.09,999.78,0.000000,0.000000,0.00,0,3,0.1138,-0.0920,1.0313,12.1374,-0.8473,-2.6107,1.042
104.976,27.23,44.09,999.78,0.000000,0.000000,0.00,0,3,0.1104,-0.0935,1.0229,11.8092,-0.6565,-2.5496,1.033
104.982,27.23,44.09,999.78,0.000000,0.000000,0.00,0,3,0.1116,-0.0932,1.0244,11.1679,-0.6412,-2.6031,1.035
105.024,27.22,44.14,999.79,0.000000,0.000000,0.00,0,3,0.0800,-0.0983,1.0188,12.6565,-1.0229,2.9847,1.027
105.098,27.25,44.08,999.81,0.000000,0.000000,0.00,0,3,0.1802,-0.0722,1.0037,4.7710,-6.5649,0.1221,1.022
105.243,27.25,44.08,999.81,0.000000,0.000000,0.00,0,3,0.1694,-0.0634,1.0049,3.9160,-6.3130,-0.0458,1.021
105.248,27.25,44.08,999.81,0.000000,0.000000,0.00,0,3,0.1804,-0.0715,1.0010,3.1603,-5.6260,0.1832,1.020
105.254,27.25,44.08,999.81,0.000000,0.000000,0.00,0,3,0.1731,-0.0734,1.0107,2.9389,-5.1221,0.2977,1.028
105.261,27.25,44.08,999.81,0.000000,0.000000,0.00,0,3,0.1624,-0.0683,1.0156,2.5420,-4.4962,0.4656,1.031
105.267,27.25,44.08,999.81,0.000000,0.000000,0.00,0,3,0.1655,-0.0737,1.0200,2.7863,-4.3893,0.7786,1.036
105.273,27.25,44.08,999.81,0.000000,0.000000,0.00,0,3,0.1567,-0.0813,1.0229,3.4046,-3.7023,0.7481,1.038
105.279,27.25,44.08,999.81,0.000000,0.000000,0.00,0,3,0.1541,-0.0795,1.0173,4.3282,-3.6794,1.1527,1.032
105.285,27.25,44.08,999.81,0.000000,0.000000,0.00,0,3,0.1545,-0.0766,1.0159,4.8550,-3.8321,0.9466,1.030
105.492,27.26,44.07,999.80,0.000000,0.000000,0.00,0,3,0.0876,-0.1055,1.0298,11.4504,5.6260,7.2748,1.039
105.567,27.25,44.06,999.79,0.000000,0.000000,0.00,0,3,0.0898,-0.1086,1.0361,11.1298,5.0992,7.2366,1.046
105.573,27.25,44.06,999.79,0.000000,0.000000,0.00,0,3,0.1055,-0.1218,1.0322,10.6565,3.9618,7.0229,1.045
105.579,27.25,44.06,999.79,0.000000,0.000000,0.00,0,3,0.0991,-0.1184,1.0134,9.8855,3.2061,6.2366,1.025
105.585,27.25,44.06,999.79,0.000000,0.000000,0.00,0,3,0.0981,-0.1150,1.0203,9.1298,2.5344,6.1527,1.031
105.591,27.25,44.06,999.79,0.000000,0.000000,0.00,0,3,0.0942,-0.1172,1.0168,8.4198,1.7405,5.4275,1.028
105.597,27.25,44.06,999.82,0.000000,0.000000,0.00,0,3,0.1030,-0.0964,1.0259,7.5115,0.9466,4.8931,1.036
105.603,27.25,44.07,999.81,0.000000,0.000000,0.00,0,3,0.1223,-0.1221,1.0190,6.8779,0.2061,4.1374,1.034
105.609,27.25,44.07,999.81,0.000000,0.000000,0.00,0,3,0.0976,-0.1245,1.0105,7.1908,-0.0458,3.6107,1.023
105.615,27.25,44.07,999.81,0.000000,0.000000,0.00,0,3,0.1047,-0.1179,1.0115,7.7863,1.0153,3.4580,1.024
105.799,27.26,44.06,999.80,0.000000,0.000000,0.00,0,3,-0.0720,-0.1648,1.0730,12.8550,7.2366,1.3359,1.088
105.805,27.26,44.06,999.80,0.000000,0.000000,0.00,0,3,-0.0505,-0.1262,1.0662,13.0153,5.5878,1.9771,1.075
105.811,27.26,44.06,999.80,0.000000,0.000000,0.00,0,3,0.0029,-0.1206,1.0464,14.1527,4.5038,2.0000,1.053
105.817,27.26,44.06,999.80,0.000000,0.000000,0.00,0,3,-0.0336,-0.1118,1.0422,13.1527,2.3511,3.3130,1.049
105.823,27.26,44.06,999.80,0.000000,0.000000,0.00,0,3,-0.0102,-0.0830,1.0293,13.2901,-1.0458,1.6489,1.033
105.829,27.26,44.06,999.80,0.000000,0.000000,0.00,0,3,0.0105,-0.0878,1.0044,12.1527,-3.4427,2.2748,1.008
105.835,27.26,44.06,999.80,0.000000,0.000000,0.00,0,3,0.0727,-0.0769,1.0205,11.3740,-6.0611,1.8244,1.026
105.841,27.26,44.06,999.80,0.000000,0.000000,0.00,0,3,0.0612,-0.0915,0.9739,10.7710,-9.5878,2.0076,0.980
105.847,27.26,44.06,999.80,0.000000,0.000000,0.00,0,3,0.0656,-0.0568,0.9973,9.7481,-10.8397,2.1756,1.001
105.853,27.26,44.06,999.80,0.000000,0.000000,0.00,0,3,0.0993,-0.0893,0.9922,9.2748,-13.4656,2.7405,1.001
106.016,27.25,44.05,999.79,0.000000,0.000000,0.00,0,3,0.1292,-0.1880,1.0613,0.2519,-1.6489,4.5344,1.086
106.022,27.25,44.05,999.79,0.000000,0.000000,0.00,0,3,0.1365,-0.1921,1.0591,3.0992,-1.6794,3.0611,1.085
106.028,27.25,44.05,999.79,0.000000,0.000000,0.00,0,3,0.1440,-0.1855,1.0647,4.7939,-2.0305,1.3206,1.090
106.034,27.25,44.05,999.79,0.000000,0.000000,0.00,0,3,0.1501,-0.1670,1.0544,5.9542,-2.8092,-0.8168,1.078
106.040,27.25,44.05,999.79,0.000000,0.000000,0.00,0,3,0.1057,-0.1289,1.0393,6.3664,-3.8931,-3.2977,1.053
106.046,27.25,44.05,999.79,0.000000,0.000000,0.00,0,3,0.1343,-0.1580,1.0420,7.1756,-4.0611,-4.0763,1.062
106.052,27.25,44.05,999.79,0.000000,0.000000,0.00,0,3,0.1560,-0.1516,1.0413,7.4580,-5.1908,-5.1832,1.064
106.059,27.25,44.05,999.79,0.000000,0.000000,0.00,0,3,0.1733,-0.1499,1.0403,6.9924,-4.9237,-5.1221,1.065
106.064,27.25,44.05,999.79,0.000000,0.000000,0.00,0,3,0.1697,-0.1355,1.0347,5.9160,-4.7252,-5.0840,1.057
106.070,27.25,44.05,999.79,0.000000,0.000000,0.00,0,3,0.1787,-0.1343,1.0142,4.3893,-4.1679,-5.4504,1.039
106.239,27.26,44.05,999.81,0.000000,0.000000,0.00,0,3,-0.0422,-0.0908,1.0786,10.3282,8.1145,-6.9237,1.083
106.245,27.26,44.05,999.81,0.000000,0.000000,0.00,0,3,0.0166,-0.0410,1.0483,13.2137,7.9695,-4.8397,1.049
106.251,27.26,44.05,999.81,0.000000,0.000000,0.00,0,3,-0.0197,-0.0573,1.0237,12.4733,6.8473,-6.6031,1.025
106.257,27.26,44.05,999.81,0.000000,0.000000,0.00,0,3,0.0205,-0.0510,1.0039,11.1527,5.1069,-5.6031,1.005
106.263,27.26,44.05,999.81,0.000000,0.000000,0.00,0,3,0.0139,-0.0444,0.9966,9.9008,2.9313,-5.7176,0.998
106.269,27.26,44.05,999.81,0.000000,0.000000,0.00,0,3,0.0400,-0.0168,1.0022,7.1603,0.2443,-5.3435,1.003
106.275,27.26,44.05,999.81,0.000000,0.000000,0.00,0,3,0.0529,-0.0395,0.9893,5.6412,-2.3511,-5.8931,0.991
106.281,27.26,44.05,999.81,0.000000,0.000000,0.00,0,3,0.0649,-0.0170,1.0029,5.9466,-1.7786,-3.0916,1.005
106.287,27.26,44.08,999.81,0.000000,0.000000,0.00,0,3,0.0795,-0.0368,0.9932,6.0916,-2.4427,-1.7252,0.997
106.293,27.26,44.08,999.81,0.000000,0.000000,0.00,0,3,0.1289,-0.0007,0.9871,4.3588,-1.7786,-0.0610,0.995
106.445,27.26,44.03,999.82,0.000000,0.000000,0.00,0,3,0.1082,0.0493,1.0134,-1.8473,2.8168,2.6870,1.020
106.519,27.26,44.03,999.82,0.000000,0.000000,0.00,0,3,0.0959,-0.0715,1.0408,0.2519,2.1450,2.9389,1.048
106.525,27.26,44.03,999.82,0.000000,0.000000,0.00,0,3,0.1768,-0.0651,1.0005,-0.9160,1.1985,5.3969,1.018
106.531,27.26,44.03,999.82,0.000000,0.000000,0.00,0,3,0.0876,-0.0459,0.9973,-1.6641,0.6031,4.6565,1.002
106.537,27.26,44.03,999.80,0.000000,0.000000,0.00,0,3,0.1165,-0.0869,1.0073,-3.2672,0.1756,2.1908,1.018
106.611,27.26,44.03,999.80,0.000000,0.000000,0.00,0,3,0.1047,-0.0849,1.0100,-5.2290,0.3969,2.4580,1.019
106.617,27.26,44.03,999.80,0.000000,0.000000,0.00,0,3,0.0981,-0.0839,1.0164,-7.3053,0.7481,1.8092,1.025
106.623,27.26,44.03,999.80,0.000000,0.000000,0.00,0,3,0.1133,-0.0842,1.0181,-7.9924,0.6947,1.7786,1.028
106.629,27.26,44.03,999.80,0.000000,0.000000,0.00,0,3,0.1001,-0.0913,0.9915,-7.9542,0.3893,1.7557,1.001
106.636,27.26,44.02,999.79,0.000000,0.000000,0.00,0,3,0.0688,-0.0932,1.0291,-13.3893,1.4885,-0.0534,1.036
106.875,27.27,44.02,999.82,0.000000,0.000000,0.00,0,3,0.2002,-0.0439,1.0200,3.9008,-0.9542,3.6107,1.040
106.949,27.27,44.01,999.80,0.000000,0.000000,0.00,0,3,0.0114,-0.1150,0.9194,-29.3359,-8.7328,9.3053,0.927
107.093,27.26,44.01,999.80,0.000000,0.000000,0.00,0,3,0.0835,-0.1140,1.0432,-28.0611,-8.7557,8.4122,1.053
107.099,27.26,44.01,999.80,0.000000,0.000000,0.00,0,3,0.0673,-0.2026,0.9788,-27.8931,-8.4427,5.4962,1.002
107.105,27.26,44.01,999.80,0.000000,0.000000,0.00,0,3,0.0998,-0.1453,0.9863,-27.4962,-8.2977,5.3969,1.002
107.111,27.26,44.01,999.80,0.000000,0.000000,0.00,0,3,0.0891,-0.1582,1.0024,-25.9542,-8.5725,3.5191,1.019
107.117,27.26,44.01,999.80,0.000000,0.000000,0.00,0,3,0.1130,-0.1411,1.0256,-25.0763,-8.4122,3.0229,1.041
107.123,27.26,44.01,999.80,0.000000,0.000000,0.00,0,3,0.1179,-0.1331,1.0112,-24.6336,-8.0153,1.8397,1.027
107.129,27.26,44.01,999.80,0.000000,0.000000,0.00,0,3,0.1062,-0.1382,1.0129,-24.0840,-7.5038,1.1145,1.028
107.135,27.25,44.02,999.75,0.000000,0.000000,0.00,0,3,0.1814,-0.0529,0.9900,-10.5115,3.4198,-3.9389,1.008
107.326,27.26,44.01,999.79,0.000000,0.000000,0.00,0,3,0.2356,-0.0510,0.9993,0.2061,11.4580,5.3359,1.028
107.331,27.26,44.01,999.79,0.000000,0.000000,0.00,0,3,0.2393,-0.0542,0.9956,1.0916,11.6947,5.9160,1.025
107.338,27.26,44.01,999.79,0.000000,0.000000,0.00,0,3,0.2363,-0.0637,1.0059,1.2443,12.4885,6.4962,1.035
107.343,27.26,44.01,999.79,0.000000,0.000000,0.00,0,3,0.2329,-0.0578,1.0117,0.8473,13.0305,6.6183,1.040
107.349,27.26,44.01,999.79,0.000000,0.000000,0.00,0,3,0.2234,-0.0564,1.0120,-0.2977,13.9924,6.6870,1.038
107.356,27.26,44.01,999.79,0.000000,0.000000,0.00,0,3,0.2212,-0.0722,1.0125,-1.3588,14.5725,6.7176,1.039
107.362,27.27,44.02,999.82,0.000000,0.000000,0.00,0,3,0.2039,-0.0805,1.0200,-2.1450,15.0382,7.0076,1.043
107.367,27.27,44.02,999.82,0.000000,0.000000,0.00,0,3,0.2019,-0.0842,1.0181,-2.5420,15.1527,7.1298,1.041
107.373,27.27,44.02,999.82,0.000000,0.000000,0.00,0,3,0.1165,-0.1177,1.0249,-5.8244,8.1298,-1.1603,1.038
107.449,27.27,44.02,999.82,0.000000,0.000000,0.00,0,3,0.1265,-0.1089,1.0212,-6.2901,7.3130,-2.5420,1.035
107.812,27.27,44.00,999.81,0.000000,0.000000,0.00,0,3,0.1692,-0.1121,1.0149,-3.7328,1.0382,-0.3817,1.035
107.818,27.27,44.00,999.81,0.000000,0.000000,0.00,0,3,0.1731,-0.1160,1.0134,-4.2061,1.3435,-0.6260,1.035
107.825,27.27,44.01,999.84,0.000000,0.000000,0.00,0,3,0.1494,-0.1145,1.0022,-3.3588,5.8168,-2.5649,1.020
107.899,27.27,44.01,999.84,0.000000,0.000000,0.00,0,3,0.1550,-0.1169,0.9985,-3.3435,6.0840,-2.6718,1.017
107.905,27.27,44.01,999.84,0.000000,0.000000,0.00,0,3,0.1670,-0.0969,0.9966,-3.5573,6.2061,-3.2061,1.015
107.911,27.27,44.01,999.84,0.000000,0.000000,0.00,0,3,0.1521,-0.0954,0.9949,-3.5420,6.8397,-3.0992,1.011
107.917,27.27,44.01,999.84,0.000000,0.000000,0.00,0,3,0.1548,-0.0986,0.9956,-3.8931,6.8397,-3.3740,1.012
107.924,27.27,44.01,999.84,0.000000,0.000000,0.00,0,3,0.1560,-0.0859,0.9937,-3.8702,6.9084,-3.1832,1.009
107.930,27.27,44.01,999.84,0.000000,0.000000,0.00,0,3,0.1418,-0.0813,0.9937,-3.6794,7.0229,-3.4351,1.007
107.936,27.27,44.01,999.84,0.000000,0.000000,0.00,0,3,0.1367,-0.0849,0.9939,-3.4046,7.0611,-3.5267,1.007
108.077,27.27,43.99,999.83,0.000000,0.000000,0.00,0,3,0.0754,-0.1052,1.0198,2.0840,5.0534,2.0763,1.028
108.083,27.27,43.99,999.83,0.000000,0.000000,0.00,0,3,0.0698,-0.0949,1.0254,3.1374,4.7176,2.1298,1.032
108.089,27.27,43.99,999.83,0.000000,0.000000,0.00,0,3,0.0854,-0.1006,1.0222,3.5573,4.2977,1.6489,1.031
108.096,27.27,43.99,999.83,0.000000,0.000000,0.00,0,3,0.0783,-0.0966,1.0254,4.1527,4.0000,1.9542,1.033
108.102,27.27,43.99,999.83,0.000000,0.000000,0.00,0,3,0.0918,-0.1042,1.0242,4.1679,3.9695,1.7634,1.034
108.107,27.27,43.99,999.83,0.000000,0.000000,0.00,0,3,0.0832,-0.1013,1.0286,4.2977,3.7176,1.4962,1.037
108.113,27.27,43.99,999.83,0.000000,0.000000,0.00,0,3,0.0659,-0.1106,0.9795,4.2366,2.0382,0.7863,0.988
108.119,27.27,43.99,999.83,0.000000,0.000000,0.00,0,3,0.1055,-0.1189,1.0725,4.0916,5.3435,2.1374,1.084
108.126,27.27,43.99,999.83,0.000000,0.000000,0.00,0,3,0.0649,-0.0708,1.0220,4.5115,2.9924,2.4198,1.026
108.132,27.27,43.99,999.83,0.000000,0.000000,0.00,0,3,0.0891,-0.1348,1.0032,3.4275,4.2290,1.4962,1.016
108.209,27.27,44.02,999.79,0.000000,0.000000,0.00,0,3,0.1099,-0.1111,1.0220,3.5191,2.4809,0.8168,1.034
